letter,corrAns,trials.thisRepN,trials.thisTrialN,trials.thisN,trials.thisIndex,trials_2.thisRepN,trials_2.thisTrialN,trials_2.thisN,trials_2.thisIndex,trials_3.thisRepN,trials_3.thisTrialN,trials_3.thisN,trials_3.thisIndex,trials_4.thisRepN,trials_4.thisTrialN,trials_4.thisN,trials_4.thisIndex,trials_5.thisRepN,trials_5.thisTrialN,trials_5.thisN,trials_5.thisIndex,trials_6.thisRepN,trials_6.thisTrialN,trials_6.thisN,trials_6.thisIndex,text.started,key_resp.started,key_resp.keys,key_resp.rt,fixation.started,text_2.started,key_resp_2.started,fixation.stopped,text_2.stopped,key_resp_2.stopped,key_resp_2.keys,key_resp_2.rt,text_4.started,key_resp_4.started,key_resp_4.keys,key_resp_4.rt,fixation1.started,text_3.started,key_resp_3.started,fixation1.stopped,text_3.stopped,key_resp_3.stopped,key_resp_3.keys,key_resp_3.corr,key_resp_3.rt,text_5.started,key_resp_5.started,key_resp_5.keys,key_resp_5.rt,fixation2.started,fixation2.stopped,text_6.started,key_resp_6.started,text_6.stopped,key_resp_6.stopped,key_resp_6.keys,key_resp_6.rt,text_7.started,key_resp_7.started,key_resp_7.keys,key_resp_7.rt,fixation3.started,text_8.started,key_resp_8.started,fixation3.stopped,text_8.stopped,key_resp_8.stopped,key_resp_8.keys,key_resp_8.corr,key_resp_8.rt,text_9.started,key_resp_9.started,key_resp_9.keys,key_resp_9.rt,fixation4.started,fixation4.stopped,text_10.started,key_resp_10.started,text_10.stopped,key_resp_10.stopped,key_resp_10.keys,text_12.started,key_resp_12.started,key_resp_12.keys,key_resp_12.rt,fixation5.started,fixation5.stopped,text_11.started,key_resp_11.started,text_11.stopped,key_resp_11.stopped,key_resp_11.keys,key_resp_11.corr,key_resp_11.rt,text_13.started,text_13.stopped,participant,session,date,expName,psychopyVersion,frameRate
,,,,,,,,,,,,,,,,,,,,,,,,,,21.108002,21.108002,space,5.2186256,,,,,,,,,,,,,,,,,,,,,,,,,,,,,,,,,,,,,,,,,,,,,,,,,,,,,,,,,,,,,,,,,,,,,,,,,chanda,1,2022-10-08_20h54.36.457,N-back_test,2022.2.4,60.02768477
C,None,0,0,0,0,,,,,,,,,,,,,,,,,,,,,,,,,26.3560935,26.8526297,26.8526297,26.8693112,27.852968,27.852968,None,,,,,,,,,,,,,,,,,,,,,,,,,,,,,,,,,,,,,,,,,,,,,,,,,,,,,,,,,,,,,,,,,,chanda,1,2022-10-08_20h54.36.457,N-back_test,2022.2.4,60.02768477
X,None,0,1,1,1,,,,,,,,,,,,,,,,,,,,,,,,,27.852968,28.3526196,28.3526196,28.3526196,29.3526028,29.3526028,None,,,,,,,,,,,,,,,,,,,,,,,,,,,,,,,,,,,,,,,,,,,,,,,,,,,,,,,,,,,,,,,,,,chanda,1,2022-10-08_20h54.36.457,N-back_test,2022.2.4,60.02768477
Y,None,0,2,2,2,,,,,,,,,,,,,,,,,,,,,,,,,29.3526028,29.8524917,29.8524917,29.8524917,30.8525806,30.8525806,None,,,,,,,,,,,,,,,,,,,,,,,,,,,,,,,,,,,,,,,,,,,,,,,,,,,,,,,,,,,,,,,,,,chanda,1,2022-10-08_20h54.36.457,N-back_test,2022.2.4,60.02768477
Y,space,0,3,3,3,,,,,,,,,,,,,,,,,,,,,,,,,30.8525806,31.3526463,31.3526463,31.3526463,,,space,0.5177033,,,,,,,,,,,,,,,,,,,,,,,,,,,,,,,,,,,,,,,,,,,,,,,,,,,,,,,,,,,,,,,,,chanda,1,2022-10-08_20h54.36.457,N-back_test,2022.2.4,60.02768477
R,None,0,4,4,4,,,,,,,,,,,,,,,,,,,,,,,,,31.9025796,32.4026604,32.4026604,32.4026604,33.4025052,33.4025052,None,,,,,,,,,,,,,,,,,,,,,,,,,,,,,,,,,,,,,,,,,,,,,,,,,,,,,,,,,,,,,,,,,,chanda,1,2022-10-08_20h54.36.457,N-back_test,2022.2.4,60.02768477
O,None,0,5,5,5,,,,,,,,,,,,,,,,,,,,,,,,,33.4025052,33.9031408,33.9031408,33.9031408,34.9024922,34.9024922,None,,,,,,,,,,,,,,,,,,,,,,,,,,,,,,,,,,,,,,,,,,,,,,,,,,,,,,,,,,,,,,,,,,chanda,1,2022-10-08_20h54.36.457,N-back_test,2022.2.4,60.02768477
T,None,0,6,6,6,,,,,,,,,,,,,,,,,,,,,,,,,34.9024922,35.4029136,35.4029136,35.4029136,36.4024386,36.4024386,None,,,,,,,,,,,,,,,,,,,,,,,,,,,,,,,,,,,,,,,,,,,,,,,,,,,,,,,,,,,,,,,,,,chanda,1,2022-10-08_20h54.36.457,N-back_test,2022.2.4,60.02768477
T,space,0,7,7,7,,,,,,,,,,,,,,,,,,,,,,,,,36.4024386,36.8872151,36.8872151,36.9038013,,,space,0.3164998,,,,,,,,,,,,,,,,,,,,,,,,,,,,,,,,,,,,,,,,,,,,,,,,,,,,,,,,,,,,,,,,,chanda,1,2022-10-08_20h54.36.457,N-back_test,2022.2.4,60.02768477
Q,None,0,8,8,8,,,,,,,,,,,,,,,,,,,,,,,,,37.2357159,37.7360255,37.7360255,37.7360255,38.7357662,38.7357662,None,,,,,,,,,,,,,,,,,,,,,,,,,,,,,,,,,,,,,,,,,,,,,,,,,,,,,,,,,,,,,,,,,,chanda,1,2022-10-08_20h54.36.457,N-back_test,2022.2.4,60.02768477
Q,space,0,9,9,9,,,,,,,,,,,,,,,,,,,,,,,,,38.7357662,39.2360038,39.2360038,39.2360038,,,space,0.3165433,,,,,,,,,,,,,,,,,,,,,,,,,,,,,,,,,,,,,,,,,,,,,,,,,,,,,,,,,,,,,,,,,chanda,1,2022-10-08_20h54.36.457,N-back_test,2022.2.4,60.02768477
,,,,,,,,,,,,,,,,,,,,,,,,,,,,,,,,,,,,,,39.5692568,39.5692568,space,16.3358412,,,,,,,,,,,,,,,,,,,,,,,,,,,,,,,,,,,,,,,,,,,,,,,,,,,,,,,,,,,,,chanda,1,2022-10-08_20h54.36.457,N-back_test,2022.2.4,60.02768477
I,None,,,,,0,0,0,0,,,,,,,,,,,,,,,,,,,,,,,,,,,,,,,,,55.937402,56.4356718,56.4356718,56.4522974,57.1856203,57.4356682,None,1,,,,,,,,,,,,,,,,,,,,,,,,,,,,,,,,,,,,,,,,,,,,,,,,,,,,,chanda,1,2022-10-08_20h54.36.457,N-back_test,2022.2.4,60.02768477
P,None,,,,,0,1,1,1,,,,,,,,,,,,,,,,,,,,,,,,,,,,,,,,,57.4356682,57.9356489,57.9356489,57.9356489,58.6855522,58.935648,None,1,,,,,,,,,,,,,,,,,,,,,,,,,,,,,,,,,,,,,,,,,,,,,,,,,,,,,chanda,1,2022-10-08_20h54.36.457,N-back_test,2022.2.4,60.02768477
O,None,,,,,0,2,2,2,,,,,,,,,,,,,,,,,,,,,,,,,,,,,,,,,58.935648,59.4356293,59.4356293,59.4356293,60.185522,60.4354791,None,1,,,,,,,,,,,,,,,,,,,,,,,,,,,,,,,,,,,,,,,,,,,,,,,,,,,,,chanda,1,2022-10-08_20h54.36.457,N-back_test,2022.2.4,60.02768477
R,None,,,,,0,3,3,3,,,,,,,,,,,,,,,,,,,,,,,,,,,,,,,,,60.4354791,60.9353138,60.9353138,60.9353138,61.6856019,61.9354157,None,1,,,,,,,,,,,,,,,,,,,,,,,,,,,,,,,,,,,,,,,,,,,,,,,,,,,,,chanda,1,2022-10-08_20h54.36.457,N-back_test,2022.2.4,60.02768477
R,space,,,,,0,4,4,4,,,,,,,,,,,,,,,,,,,,,,,,,,,,,,,,,61.9354157,62.4356313,62.4356313,62.4356313,,,space,1,0.3761861,,,,,,,,,,,,,,,,,,,,,,,,,,,,,,,,,,,,,,,,,,,,,,,,,,,,chanda,1,2022-10-08_20h54.36.457,N-back_test,2022.2.4,60.02768477
E,None,,,,,0,5,5,5,,,,,,,,,,,,,,,,,,,,,,,,,,,,,,,,,62.8353093,63.3355679,63.3355679,63.3355679,64.0853426,64.3356923,None,1,,,,,,,,,,,,,,,,,,,,,,,,,,,,,,,,,,,,,,,,,,,,,,,,,,,,,chanda,1,2022-10-08_20h54.36.457,N-back_test,2022.2.4,60.02768477
D,None,,,,,0,6,6,6,,,,,,,,,,,,,,,,,,,,,,,,,,,,,,,,,64.3356923,64.8354381,64.8354381,64.8354381,65.5855041,65.8354749,None,1,,,,,,,,,,,,,,,,,,,,,,,,,,,,,,,,,,,,,,,,,,,,,,,,,,,,,chanda,1,2022-10-08_20h54.36.457,N-back_test,2022.2.4,60.02768477
C,None,,,,,0,7,7,7,,,,,,,,,,,,,,,,,,,,,,,,,,,,,,,,,65.8354749,66.3352131,66.3352131,66.3352131,67.0853405,67.3352631,None,1,,,,,,,,,,,,,,,,,,,,,,,,,,,,,,,,,,,,,,,,,,,,,,,,,,,,,chanda,1,2022-10-08_20h54.36.457,N-back_test,2022.2.4,60.02768477
W,None,,,,,0,8,8,8,,,,,,,,,,,,,,,,,,,,,,,,,,,,,,,,,67.3352631,67.8351721,67.8351721,67.8351721,68.5852099,68.8352673,None,1,,,,,,,,,,,,,,,,,,,,,,,,,,,,,,,,,,,,,,,,,,,,,,,,,,,,,chanda,1,2022-10-08_20h54.36.457,N-back_test,2022.2.4,60.02768477
T,None,,,,,0,9,9,9,,,,,,,,,,,,,,,,,,,,,,,,,,,,,,,,,68.8352673,69.335278,69.335278,69.335278,70.0852815,70.3352289,None,1,,,,,,,,,,,,,,,,,,,,,,,,,,,,,,,,,,,,,,,,,,,,,,,,,,,,,chanda,1,2022-10-08_20h54.36.457,N-back_test,2022.2.4,60.02768477
T,space,,,,,0,10,10,10,,,,,,,,,,,,,,,,,,,,,,,,,,,,,,,,,70.3352289,70.8354177,70.8354177,70.8354177,,,space,1,0.3275733,,,,,,,,,,,,,,,,,,,,,,,,,,,,,,,,,,,,,,,,,,,,,,,,,,,,chanda,1,2022-10-08_20h54.36.457,N-back_test,2022.2.4,60.02768477
Q,None,,,,,0,11,11,11,,,,,,,,,,,,,,,,,,,,,,,,,,,,,,,,,71.1854169,71.6854052,71.6854052,71.6854052,72.4353583,72.685282,None,1,,,,,,,,,,,,,,,,,,,,,,,,,,,,,,,,,,,,,,,,,,,,,,,,,,,,,chanda,1,2022-10-08_20h54.36.457,N-back_test,2022.2.4,60.02768477
Q,space,,,,,0,12,12,12,,,,,,,,,,,,,,,,,,,,,,,,,,,,,,,,,72.685282,73.1852433,73.1852433,73.1852433,,,space,1,0.3470717,,,,,,,,,,,,,,,,,,,,,,,,,,,,,,,,,,,,,,,,,,,,,,,,,,,,chanda,1,2022-10-08_20h54.36.457,N-back_test,2022.2.4,60.02768477
R,None,,,,,0,13,13,13,,,,,,,,,,,,,,,,,,,,,,,,,,,,,,,,,73.5518819,74.0518263,74.0518263,74.0518263,74.801747,75.0517712,None,1,,,,,,,,,,,,,,,,,,,,,,,,,,,,,,,,,,,,,,,,,,,,,,,,,,,,,chanda,1,2022-10-08_20h54.36.457,N-back_test,2022.2.4,60.02768477
K,None,,,,,0,14,14,14,,,,,,,,,,,,,,,,,,,,,,,,,,,,,,,,,75.0517712,75.5520312,75.5520312,75.5520312,76.301811,76.5519867,None,1,,,,,,,,,,,,,,,,,,,,,,,,,,,,,,,,,,,,,,,,,,,,,,,,,,,,,chanda,1,2022-10-08_20h54.36.457,N-back_test,2022.2.4,60.02768477
K,space,,,,,0,15,15,15,,,,,,,,,,,,,,,,,,,,,,,,,,,,,,,,,76.5519867,77.0518993,77.0518993,77.0518993,,,space,1,0.3287258,,,,,,,,,,,,,,,,,,,,,,,,,,,,,,,,,,,,,,,,,,,,,,,,,,,,chanda,1,2022-10-08_20h54.36.457,N-back_test,2022.2.4,60.02768477
L,None,,,,,0,16,16,16,,,,,,,,,,,,,,,,,,,,,,,,,,,,,,,,,77.4019563,77.9019257,77.9019257,77.9019257,78.6520064,78.9018562,None,1,,,,,,,,,,,,,,,,,,,,,,,,,,,,,,,,,,,,,,,,,,,,,,,,,,,,,chanda,1,2022-10-08_20h54.36.457,N-back_test,2022.2.4,60.02768477
C,None,,,,,0,17,17,17,,,,,,,,,,,,,,,,,,,,,,,,,,,,,,,,,78.9018562,79.4023606,79.4023606,79.4023606,80.1516997,80.4017538,None,1,,,,,,,,,,,,,,,,,,,,,,,,,,,,,,,,,,,,,,,,,,,,,,,,,,,,,chanda,1,2022-10-08_20h54.36.457,N-back_test,2022.2.4,60.02768477
C,space,,,,,0,18,18,18,,,,,,,,,,,,,,,,,,,,,,,,,,,,,,,,,80.4017538,80.9016428,80.9016428,80.9016428,,,space,1,0.2632741,,,,,,,,,,,,,,,,,,,,,,,,,,,,,,,,,,,,,,,,,,,,,,,,,,,,chanda,1,2022-10-08_20h54.36.457,N-back_test,2022.2.4,60.02768477
Y,None,,,,,0,19,19,19,,,,,,,,,,,,,,,,,,,,,,,,,,,,,,,,,81.1850111,81.6851879,81.6851879,81.6851879,82.4350931,82.6851926,None,1,,,,,,,,,,,,,,,,,,,,,,,,,,,,,,,,,,,,,,,,,,,,,,,,,,,,,chanda,1,2022-10-08_20h54.36.457,N-back_test,2022.2.4,60.02768477
X,None,,,,,0,20,20,20,,,,,,,,,,,,,,,,,,,,,,,,,,,,,,,,,82.6851926,83.1851967,83.1851967,83.1851967,83.9351098,84.1849484,None,1,,,,,,,,,,,,,,,,,,,,,,,,,,,,,,,,,,,,,,,,,,,,,,,,,,,,,chanda,1,2022-10-08_20h54.36.457,N-back_test,2022.2.4,60.02768477
W,None,,,,,0,21,21,21,,,,,,,,,,,,,,,,,,,,,,,,,,,,,,,,,84.1849484,84.6851115,84.6851115,84.6851115,85.435005,85.6851588,None,1,,,,,,,,,,,,,,,,,,,,,,,,,,,,,,,,,,,,,,,,,,,,,,,,,,,,,chanda,1,2022-10-08_20h54.36.457,N-back_test,2022.2.4,60.02768477
R,None,,,,,0,22,22,22,,,,,,,,,,,,,,,,,,,,,,,,,,,,,,,,,85.6851588,86.1850361,86.1850361,86.1850361,86.9350642,87.1850549,None,1,,,,,,,,,,,,,,,,,,,,,,,,,,,,,,,,,,,,,,,,,,,,,,,,,,,,,chanda,1,2022-10-08_20h54.36.457,N-back_test,2022.2.4,60.02768477
M,None,,,,,0,23,23,23,,,,,,,,,,,,,,,,,,,,,,,,,,,,,,,,,87.1850549,87.6851225,87.6851225,87.6851225,88.4350664,88.6854098,None,1,,,,,,,,,,,,,,,,,,,,,,,,,,,,,,,,,,,,,,,,,,,,,,,,,,,,,chanda,1,2022-10-08_20h54.36.457,N-back_test,2022.2.4,60.02768477
M,space,,,,,0,24,24,24,,,,,,,,,,,,,,,,,,,,,,,,,,,,,,,,,88.6854098,89.1850347,89.1850347,89.1850347,89.9350384,,space,1,0.7454289,,,,,,,,,,,,,,,,,,,,,,,,,,,,,,,,,,,,,,,,,,,,,,,,,,,,chanda,1,2022-10-08_20h54.36.457,N-back_test,2022.2.4,60.02768477
E,None,,,,,0,25,25,25,,,,,,,,,,,,,,,,,,,,,,,,,,,,,,,,,89.9516762,90.4516551,90.4516551,90.4516551,91.2015078,91.451563,None,1,,,,,,,,,,,,,,,,,,,,,,,,,,,,,,,,,,,,,,,,,,,,,,,,,,,,,chanda,1,2022-10-08_20h54.36.457,N-back_test,2022.2.4,60.02768477
R,None,,,,,0,26,26,26,,,,,,,,,,,,,,,,,,,,,,,,,,,,,,,,,91.451563,91.9514837,91.9514837,91.9514837,92.7016054,92.9515228,None,1,,,,,,,,,,,,,,,,,,,,,,,,,,,,,,,,,,,,,,,,,,,,,,,,,,,,,chanda,1,2022-10-08_20h54.36.457,N-back_test,2022.2.4,60.02768477
U,None,,,,,0,27,27,27,,,,,,,,,,,,,,,,,,,,,,,,,,,,,,,,,92.9515228,93.4515798,93.4515798,93.4515798,94.2017048,94.4516962,None,1,,,,,,,,,,,,,,,,,,,,,,,,,,,,,,,,,,,,,,,,,,,,,,,,,,,,,chanda,1,2022-10-08_20h54.36.457,N-back_test,2022.2.4,60.02768477
U,space,,,,,0,28,28,28,,,,,,,,,,,,,,,,,,,,,,,,,,,,,,,,,94.4516962,94.9513844,94.9513844,94.9513844,,,space,1,0.3347945,,,,,,,,,,,,,,,,,,,,,,,,,,,,,,,,,,,,,,,,,,,,,,,,,,,,chanda,1,2022-10-08_20h54.36.457,N-back_test,2022.2.4,60.02768477
A,None,,,,,0,29,29,29,,,,,,,,,,,,,,,,,,,,,,,,,,,,,,,,,95.3183218,95.8183021,95.8183021,95.8183021,96.5679928,96.8180854,None,1,,,,,,,,,,,,,,,,,,,,,,,,,,,,,,,,,,,,,,,,,,,,,,,,,,,,,chanda,1,2022-10-08_20h54.36.457,N-back_test,2022.2.4,60.02768477
B,None,,,,,0,30,30,30,,,,,,,,,,,,,,,,,,,,,,,,,,,,,,,,,96.8180854,97.3180541,97.3180541,97.3180541,98.0682054,98.31816,None,1,,,,,,,,,,,,,,,,,,,,,,,,,,,,,,,,,,,,,,,,,,,,,,,,,,,,,chanda,1,2022-10-08_20h54.36.457,N-back_test,2022.2.4,60.02768477
T,None,,,,,0,31,31,31,,,,,,,,,,,,,,,,,,,,,,,,,,,,,,,,,98.31816,98.8182896,98.8182896,98.8182896,99.5679744,99.8179062,None,1,,,,,,,,,,,,,,,,,,,,,,,,,,,,,,,,,,,,,,,,,,,,,,,,,,,,,chanda,1,2022-10-08_20h54.36.457,N-back_test,2022.2.4,60.02768477
Y,None,,,,,0,32,32,32,,,,,,,,,,,,,,,,,,,,,,,,,,,,,,,,,99.8179062,100.3181443,100.3181443,100.3181443,101.0679978,101.3179365,None,1,,,,,,,,,,,,,,,,,,,,,,,,,,,,,,,,,,,,,,,,,,,,,,,,,,,,,chanda,1,2022-10-08_20h54.36.457,N-back_test,2022.2.4,60.02768477
W,None,,,,,0,33,33,33,,,,,,,,,,,,,,,,,,,,,,,,,,,,,,,,,101.3179365,101.8181772,101.8181772,101.8181772,102.5681065,102.817942,None,1,,,,,,,,,,,,,,,,,,,,,,,,,,,,,,,,,,,,,,,,,,,,,,,,,,,,,chanda,1,2022-10-08_20h54.36.457,N-back_test,2022.2.4,60.02768477
X,None,,,,,0,34,34,34,,,,,,,,,,,,,,,,,,,,,,,,,,,,,,,,,102.817942,103.3181699,103.3181699,103.3181699,104.0679121,104.3181726,None,1,,,,,,,,,,,,,,,,,,,,,,,,,,,,,,,,,,,,,,,,,,,,,,,,,,,,,chanda,1,2022-10-08_20h54.36.457,N-back_test,2022.2.4,60.02768477
X,space,,,,,0,35,35,35,,,,,,,,,,,,,,,,,,,,,,,,,,,,,,,,,104.3181726,104.8186063,104.8186063,104.8186063,,,space,1,0.5273583,,,,,,,,,,,,,,,,,,,,,,,,,,,,,,,,,,,,,,,,,,,,,,,,,,,,chanda,1,2022-10-08_20h54.36.457,N-back_test,2022.2.4,60.02768477
P,None,,,,,0,36,36,36,,,,,,,,,,,,,,,,,,,,,,,,,,,,,,,,,105.368424,105.8682155,105.8682155,105.8682155,106.6178776,106.8679599,None,1,,,,,,,,,,,,,,,,,,,,,,,,,,,,,,,,,,,,,,,,,,,,,,,,,,,,,chanda,1,2022-10-08_20h54.36.457,N-back_test,2022.2.4,60.02768477
F,None,,,,,0,37,37,37,,,,,,,,,,,,,,,,,,,,,,,,,,,,,,,,,106.8679599,107.3679721,107.3679721,107.3679721,108.118066,108.3680023,None,1,,,,,,,,,,,,,,,,,,,,,,,,,,,,,,,,,,,,,,,,,,,,,,,,,,,,,chanda,1,2022-10-08_20h54.36.457,N-back_test,2022.2.4,60.02768477
W,None,,,,,0,38,38,38,,,,,,,,,,,,,,,,,,,,,,,,,,,,,,,,,108.3680023,108.8680659,108.8680659,108.8680659,109.6180477,109.8683908,None,1,,,,,,,,,,,,,,,,,,,,,,,,,,,,,,,,,,,,,,,,,,,,,,,,,,,,,chanda,1,2022-10-08_20h54.36.457,N-back_test,2022.2.4,60.02768477
W,space,,,,,0,39,39,39,,,,,,,,,,,,,,,,,,,,,,,,,,,,,,,,,109.8683908,110.3680513,110.3680513,110.3680513,,,space,1,0.3376959,,,,,,,,,,,,,,,,,,,,,,,,,,,,,,,,,,,,,,,,,,,,,,,,,,,,chanda,1,2022-10-08_20h54.36.457,N-back_test,2022.2.4,60.02768477
K,None,,,,,0,40,40,40,,,,,,,,,,,,,,,,,,,,,,,,,,,,,,,,,110.734644,111.2344751,111.2344751,111.2344751,111.9846956,112.2344393,None,1,,,,,,,,,,,,,,,,,,,,,,,,,,,,,,,,,,,,,,,,,,,,,,,,,,,,,chanda,1,2022-10-08_20h54.36.457,N-back_test,2022.2.4,60.02768477
L,None,,,,,0,41,41,41,,,,,,,,,,,,,,,,,,,,,,,,,,,,,,,,,112.2344393,112.7344169,112.7344169,112.7344169,113.4846141,113.7346164,None,1,,,,,,,,,,,,,,,,,,,,,,,,,,,,,,,,,,,,,,,,,,,,,,,,,,,,,chanda,1,2022-10-08_20h54.36.457,N-back_test,2022.2.4,60.02768477
N,None,,,,,0,42,42,42,,,,,,,,,,,,,,,,,,,,,,,,,,,,,,,,,113.7346164,114.2345605,114.2345605,114.2345605,114.9844101,115.2345281,None,1,,,,,,,,,,,,,,,,,,,,,,,,,,,,,,,,,,,,,,,,,,,,,,,,,,,,,chanda,1,2022-10-08_20h54.36.457,N-back_test,2022.2.4,60.02768477
D,None,,,,,0,43,43,43,,,,,,,,,,,,,,,,,,,,,,,,,,,,,,,,,115.2345281,115.734429,115.734429,115.734429,116.4845067,116.734363,None,1,,,,,,,,,,,,,,,,,,,,,,,,,,,,,,,,,,,,,,,,,,,,,,,,,,,,,chanda,1,2022-10-08_20h54.36.457,N-back_test,2022.2.4,60.02768477
Q,None,,,,,0,44,44,44,,,,,,,,,,,,,,,,,,,,,,,,,,,,,,,,,116.734363,117.2346563,117.2346563,117.2346563,117.9845445,118.2343222,None,1,,,,,,,,,,,,,,,,,,,,,,,,,,,,,,,,,,,,,,,,,,,,,,,,,,,,,chanda,1,2022-10-08_20h54.36.457,N-back_test,2022.2.4,60.02768477
Z,None,,,,,0,45,45,45,,,,,,,,,,,,,,,,,,,,,,,,,,,,,,,,,118.2343222,118.7345877,118.7345877,118.7345877,119.4844639,119.7342819,None,1,,,,,,,,,,,,,,,,,,,,,,,,,,,,,,,,,,,,,,,,,,,,,,,,,,,,,chanda,1,2022-10-08_20h54.36.457,N-back_test,2022.2.4,60.02768477
Z,space,,,,,0,46,46,46,,,,,,,,,,,,,,,,,,,,,,,,,,,,,,,,,119.7342819,120.2342326,120.2342326,120.2342326,,,space,1,0.357715,,,,,,,,,,,,,,,,,,,,,,,,,,,,,,,,,,,,,,,,,,,,,,,,,,,,chanda,1,2022-10-08_20h54.36.457,N-back_test,2022.2.4,60.02768477
F,None,,,,,0,47,47,47,,,,,,,,,,,,,,,,,,,,,,,,,,,,,,,,,120.617877,121.1176428,121.1176428,121.1176428,121.8678038,122.11776,None,1,,,,,,,,,,,,,,,,,,,,,,,,,,,,,,,,,,,,,,,,,,,,,,,,,,,,,chanda,1,2022-10-08_20h54.36.457,N-back_test,2022.2.4,60.02768477
G,None,,,,,0,48,48,48,,,,,,,,,,,,,,,,,,,,,,,,,,,,,,,,,122.11776,122.6177278,122.6177278,122.6177278,123.3677782,123.6175778,None,1,,,,,,,,,,,,,,,,,,,,,,,,,,,,,,,,,,,,,,,,,,,,,,,,,,,,,chanda,1,2022-10-08_20h54.36.457,N-back_test,2022.2.4,60.02768477
G,space,,,,,0,49,49,49,,,,,,,,,,,,,,,,,,,,,,,,,,,,,,,,,123.6175778,124.1178044,124.1178044,124.1178044,,,space,1,0.3362081,,,,,,,,,,,,,,,,,,,,,,,,,,,,,,,,,,,,,,,,,,,,,,,,,,,,chanda,1,2022-10-08_20h54.36.457,N-back_test,2022.2.4,60.02768477
,,,,,,,,,,,,,,,,,,,,,,,,,,,,,,,,,,,,,,,,,,,,,,,,,,,124.4841771,124.4841771,space,18.2216438,,,,,,,,,,,,,,,,,,,,,,,,,,,,,,,,,,,,,,,,,,,,,,,,chanda,1,2022-10-08_20h54.36.457,N-back_test,2022.2.4,60.02768477
A,None,,,,,,,,,0,0,0,0,,,,,,,,,,,,,,,,,,,,,,,,,,,,,,,,,,,,,,,,,,142.7340188,143.2339521,143.2339521,143.2339521,144.2339636,144.2339636,None,,,,,,,,,,,,,,,,,,,,,,,,,,,,,,,,,,,,,,,,,chanda,1,2022-10-08_20h54.36.457,N-back_test,2022.2.4,60.02768477
H,None,,,,,,,,,0,1,1,1,,,,,,,,,,,,,,,,,,,,,,,,,,,,,,,,,,,,,,,,,,144.2339636,144.7340664,144.7340664,144.7340664,145.7337916,145.7337916,None,,,,,,,,,,,,,,,,,,,,,,,,,,,,,,,,,,,,,,,,,chanda,1,2022-10-08_20h54.36.457,N-back_test,2022.2.4,60.02768477
C,None,,,,,,,,,0,2,2,2,,,,,,,,,,,,,,,,,,,,,,,,,,,,,,,,,,,,,,,,,,145.7337916,146.2337938,146.2172714,146.2172714,147.2173894,147.2173894,None,,,,,,,,,,,,,,,,,,,,,,,,,,,,,,,,,,,,,,,,,chanda,1,2022-10-08_20h54.36.457,N-back_test,2022.2.4,60.02768477
H,space,,,,,,,,,0,3,3,3,,,,,,,,,,,,,,,,,,,,,,,,,,,,,,,,,,,,,,,,,,147.2173894,147.7172821,147.7340329,147.7340329,,,space,0.8545288,,,,,,,,,,,,,,,,,,,,,,,,,,,,,,,,,,,,,,,,chanda,1,2022-10-08_20h54.36.457,N-back_test,2022.2.4,60.02768477
F,None,,,,,,,,,0,4,4,4,,,,,,,,,,,,,,,,,,,,,,,,,,,,,,,,,,,,,,,,,,148.6173141,149.1173499,149.1173499,149.1173499,150.1172572,150.1172572,None,,,,,,,,,,,,,,,,,,,,,,,,,,,,,,,,,,,,,,,,,chanda,1,2022-10-08_20h54.36.457,N-back_test,2022.2.4,60.02768477
A,None,,,,,,,,,0,5,5,5,,,,,,,,,,,,,,,,,,,,,,,,,,,,,,,,,,,,,,,,,,150.1172572,150.6171145,150.6171145,150.6171145,151.6172805,151.6172805,None,,,,,,,,,,,,,,,,,,,,,,,,,,,,,,,,,,,,,,,,,chanda,1,2022-10-08_20h54.36.457,N-back_test,2022.2.4,60.02768477
F,space,,,,,,,,,0,6,6,6,,,,,,,,,,,,,,,,,,,,,,,,,,,,,,,,,,,,,,,,,,151.6172805,152.1171023,152.1171023,152.1171023,153.1172808,153.1172808,None,,,,,,,,,,,,,,,,,,,,,,,,,,,,,,,,,,,,,,,,,chanda,1,2022-10-08_20h54.36.457,N-back_test,2022.2.4,60.02768477
B,None,,,,,,,,,0,7,7,7,,,,,,,,,,,,,,,,,,,,,,,,,,,,,,,,,,,,,,,,,,153.1172808,153.6170601,153.6170601,153.6170601,154.617221,154.617221,None,,,,,,,,,,,,,,,,,,,,,,,,,,,,,,,,,,,,,,,,,chanda,1,2022-10-08_20h54.36.457,N-back_test,2022.2.4,60.02768477
A,None,,,,,,,,,0,8,8,8,,,,,,,,,,,,,,,,,,,,,,,,,,,,,,,,,,,,,,,,,,154.617221,155.1169346,155.1169346,155.1169346,156.1172104,156.1172104,None,,,,,,,,,,,,,,,,,,,,,,,,,,,,,,,,,,,,,,,,,chanda,1,2022-10-08_20h54.36.457,N-back_test,2022.2.4,60.02768477
B,space,,,,,,,,,0,9,9,9,,,,,,,,,,,,,,,,,,,,,,,,,,,,,,,,,,,,,,,,,,156.1172104,156.6171977,156.6171977,156.6171977,,,space,0.4753825,,,,,,,,,,,,,,,,,,,,,,,,,,,,,,,,,,,,,,,,chanda,1,2022-10-08_20h54.36.457,N-back_test,2022.2.4,60.02768477
,,,,,,,,,,,,,,,,,,,,,,,,,,,,,,,,,,,,,,,,,,,,,,,,,,,,,,,,,,,,,,,157.1169347,157.1169347,space,4.1220018,,,,,,,,,,,,,,,,,,,,,,,,,,,,,,,,,,,,chanda,1,2022-10-08_20h54.36.457,N-back_test,2022.2.4,60.02768477
C,None,,,,,,,,,,,,,0,0,0,0,,,,,,,,,,,,,,,,,,,,,,,,,,,,,,,,,,,,,,,,,,,,,,,,,,161.2671061,161.750374,161.750374,161.7669134,162.5004009,162.7503568,None,1,,,,,,,,,,,,,,,,,,,,,,,,,,,,chanda,1,2022-10-08_20h54.36.457,N-back_test,2022.2.4,60.02768477
J,None,,,,,,,,,,,,,0,1,1,1,,,,,,,,,,,,,,,,,,,,,,,,,,,,,,,,,,,,,,,,,,,,,,,,,,162.7503568,163.2503528,163.2503528,163.2503528,164.0003213,164.2501368,None,1,,,,,,,,,,,,,,,,,,,,,,,,,,,,chanda,1,2022-10-08_20h54.36.457,N-back_test,2022.2.4,60.02768477
C,space,,,,,,,,,,,,,0,2,2,2,,,,,,,,,,,,,,,,,,,,,,,,,,,,,,,,,,,,,,,,,,,,,,,,,,164.2501368,164.7501572,164.7501572,164.7501572,165.5002918,165.7501904,None,0,,,,,,,,,,,,,,,,,,,,,,,,,,,,chanda,1,2022-10-08_20h54.36.457,N-back_test,2022.2.4,60.02768477
A,None,,,,,,,,,,,,,0,3,3,3,,,,,,,,,,,,,,,,,,,,,,,,,,,,,,,,,,,,,,,,,,,,,,,,,,165.7670445,166.2670114,166.2670114,166.2670114,167.016912,167.2670654,None,1,,,,,,,,,,,,,,,,,,,,,,,,,,,,chanda,1,2022-10-08_20h54.36.457,N-back_test,2022.2.4,60.02768477
I,None,,,,,,,,,,,,,0,4,4,4,,,,,,,,,,,,,,,,,,,,,,,,,,,,,,,,,,,,,,,,,,,,,,,,,,167.2670654,167.7669809,167.7669809,167.7669809,168.5166971,168.7669575,None,1,,,,,,,,,,,,,,,,,,,,,,,,,,,,chanda,1,2022-10-08_20h54.36.457,N-back_test,2022.2.4,60.02768477
A,space,,,,,,,,,,,,,0,5,5,5,,,,,,,,,,,,,,,,,,,,,,,,,,,,,,,,,,,,,,,,,,,,,,,,,,168.7669575,169.2669336,169.2669336,169.2669336,170.0167179,170.2666863,None,0,,,,,,,,,,,,,,,,,,,,,,,,,,,,chanda,1,2022-10-08_20h54.36.457,N-back_test,2022.2.4,60.02768477
G,None,,,,,,,,,,,,,0,6,6,6,,,,,,,,,,,,,,,,,,,,,,,,,,,,,,,,,,,,,,,,,,,,,,,,,,170.2666863,170.7669106,170.7669106,170.7669106,171.5168619,171.7669195,None,1,,,,,,,,,,,,,,,,,,,,,,,,,,,,chanda,1,2022-10-08_20h54.36.457,N-back_test,2022.2.4,60.02768477
A,space,,,,,,,,,,,,,0,7,7,7,,,,,,,,,,,,,,,,,,,,,,,,,,,,,,,,,,,,,,,,,,,,,,,,,,171.7669195,172.2667735,172.2667735,172.2667735,173.0166105,173.2666727,None,0,,,,,,,,,,,,,,,,,,,,,,,,,,,,chanda,1,2022-10-08_20h54.36.457,N-back_test,2022.2.4,60.02768477
H,None,,,,,,,,,,,,,0,8,8,8,,,,,,,,,,,,,,,,,,,,,,,,,,,,,,,,,,,,,,,,,,,,,,,,,,173.2666727,173.7667798,173.7667798,173.7667798,174.5168544,174.7667584,None,1,,,,,,,,,,,,,,,,,,,,,,,,,,,,chanda,1,2022-10-08_20h54.36.457,N-back_test,2022.2.4,60.02768477
C,None,,,,,,,,,,,,,0,9,9,9,,,,,,,,,,,,,,,,,,,,,,,,,,,,,,,,,,,,,,,,,,,,,,,,,,174.7667584,175.2666296,175.2666296,175.2666296,176.0166516,176.2668415,None,1,,,,,,,,,,,,,,,,,,,,,,,,,,,,chanda,1,2022-10-08_20h54.36.457,N-back_test,2022.2.4,60.02768477
H,space,,,,,,,,,,,,,0,10,10,10,,,,,,,,,,,,,,,,,,,,,,,,,,,,,,,,,,,,,,,,,,,,,,,,,,176.2668415,176.7665861,176.7665861,176.7665861,177.5168134,177.7665735,None,0,,,,,,,,,,,,,,,,,,,,,,,,,,,,chanda,1,2022-10-08_20h54.36.457,N-back_test,2022.2.4,60.02768477
F,None,,,,,,,,,,,,,0,11,11,11,,,,,,,,,,,,,,,,,,,,,,,,,,,,,,,,,,,,,,,,,,,,,,,,,,177.7665735,178.2667514,178.2667514,178.2667514,179.0167886,179.2667434,None,1,,,,,,,,,,,,,,,,,,,,,,,,,,,,chanda,1,2022-10-08_20h54.36.457,N-back_test,2022.2.4,60.02768477
A,None,,,,,,,,,,,,,0,12,12,12,,,,,,,,,,,,,,,,,,,,,,,,,,,,,,,,,,,,,,,,,,,,,,,,,,179.2667434,179.7667825,179.7667825,179.7667825,180.5167122,180.7667549,None,1,,,,,,,,,,,,,,,,,,,,,,,,,,,,chanda,1,2022-10-08_20h54.36.457,N-back_test,2022.2.4,60.02768477
F,space,,,,,,,,,,,,,0,13,13,13,,,,,,,,,,,,,,,,,,,,,,,,,,,,,,,,,,,,,,,,,,,,,,,,,,180.7667549,181.2667414,181.2667414,181.2667414,182.016542,182.2667179,None,0,,,,,,,,,,,,,,,,,,,,,,,,,,,,chanda,1,2022-10-08_20h54.36.457,N-back_test,2022.2.4,60.02768477
B,None,,,,,,,,,,,,,0,14,14,14,,,,,,,,,,,,,,,,,,,,,,,,,,,,,,,,,,,,,,,,,,,,,,,,,,182.2667179,182.7664446,182.7664446,182.7664446,183.5167075,183.766612,None,1,,,,,,,,,,,,,,,,,,,,,,,,,,,,chanda,1,2022-10-08_20h54.36.457,N-back_test,2022.2.4,60.02768477
A,None,,,,,,,,,,,,,0,15,15,15,,,,,,,,,,,,,,,,,,,,,,,,,,,,,,,,,,,,,,,,,,,,,,,,,,183.766612,184.2664957,184.2664957,184.2664957,185.0164681,185.2666017,None,1,,,,,,,,,,,,,,,,,,,,,,,,,,,,chanda,1,2022-10-08_20h54.36.457,N-back_test,2022.2.4,60.02768477
B,space,,,,,,,,,,,,,0,16,16,16,,,,,,,,,,,,,,,,,,,,,,,,,,,,,,,,,,,,,,,,,,,,,,,,,,185.2666017,185.7671814,185.7671814,185.7671814,,,space,1,0.6026818,,,,,,,,,,,,,,,,,,,,,,,,,,,chanda,1,2022-10-08_20h54.36.457,N-back_test,2022.2.4,60.02768477
H,None,,,,,,,,,,,,,0,17,17,17,,,,,,,,,,,,,,,,,,,,,,,,,,,,,,,,,,,,,,,,,,,,,,,,,,186.399751,186.8999972,186.8999972,186.8999972,187.649841,187.8999571,None,1,,,,,,,,,,,,,,,,,,,,,,,,,,,,chanda,1,2022-10-08_20h54.36.457,N-back_test,2022.2.4,60.02768477
D,None,,,,,,,,,,,,,0,18,18,18,,,,,,,,,,,,,,,,,,,,,,,,,,,,,,,,,,,,,,,,,,,,,,,,,,187.8999571,188.3998971,188.3998971,188.3998971,189.1497218,189.3997382,None,1,,,,,,,,,,,,,,,,,,,,,,,,,,,,chanda,1,2022-10-08_20h54.36.457,N-back_test,2022.2.4,60.02768477
J,None,,,,,,,,,,,,,0,19,19,19,,,,,,,,,,,,,,,,,,,,,,,,,,,,,,,,,,,,,,,,,,,,,,,,,,189.3997382,189.8996535,189.8996535,189.8996535,190.6496281,190.8997787,None,1,,,,,,,,,,,,,,,,,,,,,,,,,,,,chanda,1,2022-10-08_20h54.36.457,N-back_test,2022.2.4,60.02768477
F,None,,,,,,,,,,,,,0,20,20,20,,,,,,,,,,,,,,,,,,,,,,,,,,,,,,,,,,,,,,,,,,,,,,,,,,190.8997787,191.3998013,191.3998013,191.3998013,192.1498472,192.3997998,None,1,,,,,,,,,,,,,,,,,,,,,,,,,,,,chanda,1,2022-10-08_20h54.36.457,N-back_test,2022.2.4,60.02768477
J,space,,,,,,,,,,,,,0,21,21,21,,,,,,,,,,,,,,,,,,,,,,,,,,,,,,,,,,,,,,,,,,,,,,,,,,192.3997998,192.8998673,192.8998673,192.8998673,193.6495845,193.8998517,None,0,,,,,,,,,,,,,,,,,,,,,,,,,,,,chanda,1,2022-10-08_20h54.36.457,N-back_test,2022.2.4,60.02768477
C,None,,,,,,,,,,,,,0,22,22,22,,,,,,,,,,,,,,,,,,,,,,,,,,,,,,,,,,,,,,,,,,,,,,,,,,193.8998517,194.3995954,194.3995954,194.3995954,195.149875,195.3995462,None,1,,,,,,,,,,,,,,,,,,,,,,,,,,,,chanda,1,2022-10-08_20h54.36.457,N-back_test,2022.2.4,60.02768477
D,None,,,,,,,,,,,,,0,23,23,23,,,,,,,,,,,,,,,,,,,,,,,,,,,,,,,,,,,,,,,,,,,,,,,,,,195.3995462,195.8998096,195.8998096,195.8998096,196.6495432,196.8996063,None,1,,,,,,,,,,,,,,,,,,,,,,,,,,,,chanda,1,2022-10-08_20h54.36.457,N-back_test,2022.2.4,60.02768477
H,None,,,,,,,,,,,,,0,24,24,24,,,,,,,,,,,,,,,,,,,,,,,,,,,,,,,,,,,,,,,,,,,,,,,,,,196.8996063,197.3995599,197.3995599,197.3995599,198.149682,198.3997788,None,1,,,,,,,,,,,,,,,,,,,,,,,,,,,,chanda,1,2022-10-08_20h54.36.457,N-back_test,2022.2.4,60.02768477
D,space,,,,,,,,,,,,,0,25,25,25,,,,,,,,,,,,,,,,,,,,,,,,,,,,,,,,,,,,,,,,,,,,,,,,,,198.3997788,198.899555,198.899555,198.899555,199.6496729,199.8994733,None,0,,,,,,,,,,,,,,,,,,,,,,,,,,,,chanda,1,2022-10-08_20h54.36.457,N-back_test,2022.2.4,60.02768477
A,None,,,,,,,,,,,,,0,26,26,26,,,,,,,,,,,,,,,,,,,,,,,,,,,,,,,,,,,,,,,,,,,,,,,,,,199.8994733,200.3994851,200.3994851,200.3994851,201.1496366,201.399502,None,1,,,,,,,,,,,,,,,,,,,,,,,,,,,,chanda,1,2022-10-08_20h54.36.457,N-back_test,2022.2.4,60.02768477
B,None,,,,,,,,,,,,,0,27,27,27,,,,,,,,,,,,,,,,,,,,,,,,,,,,,,,,,,,,,,,,,,,,,,,,,,201.399502,201.9002132,201.9002132,201.9002132,202.6495832,202.899696,None,1,,,,,,,,,,,,,,,,,,,,,,,,,,,,chanda,1,2022-10-08_20h54.36.457,N-back_test,2022.2.4,60.02768477
E,None,,,,,,,,,,,,,0,28,28,28,,,,,,,,,,,,,,,,,,,,,,,,,,,,,,,,,,,,,,,,,,,,,,,,,,202.899696,203.3995522,203.3995522,203.3995522,204.1494201,204.40048,None,1,,,,,,,,,,,,,,,,,,,,,,,,,,,,chanda,1,2022-10-08_20h54.36.457,N-back_test,2022.2.4,60.02768477
I,None,,,,,,,,,,,,,0,29,29,29,,,,,,,,,,,,,,,,,,,,,,,,,,,,,,,,,,,,,,,,,,,,,,,,,,204.40048,204.8995444,204.8995444,204.9160713,205.6499555,205.9000325,None,1,,,,,,,,,,,,,,,,,,,,,,,,,,,,chanda,1,2022-10-08_20h54.36.457,N-back_test,2022.2.4,60.02768477
F,None,,,,,,,,,,,,,0,30,30,30,,,,,,,,,,,,,,,,,,,,,,,,,,,,,,,,,,,,,,,,,,,,,,,,,,205.9000325,206.3998196,206.3998196,206.3998196,207.1500523,207.3996303,None,1,,,,,,,,,,,,,,,,,,,,,,,,,,,,chanda,1,2022-10-08_20h54.36.457,N-back_test,2022.2.4,60.02768477
I,space,,,,,,,,,,,,,0,31,31,31,,,,,,,,,,,,,,,,,,,,,,,,,,,,,,,,,,,,,,,,,,,,,,,,,,207.3996303,207.899584,207.899584,207.899584,208.6493701,208.8994606,None,0,,,,,,,,,,,,,,,,,,,,,,,,,,,,chanda,1,2022-10-08_20h54.36.457,N-back_test,2022.2.4,60.02768477
B,None,,,,,,,,,,,,,0,32,32,32,,,,,,,,,,,,,,,,,,,,,,,,,,,,,,,,,,,,,,,,,,,,,,,,,,208.8994606,209.3996488,209.3996488,209.3996488,210.1495461,210.399556,None,1,,,,,,,,,,,,,,,,,,,,,,,,,,,,chanda,1,2022-10-08_20h54.36.457,N-back_test,2022.2.4,60.02768477
I,space,,,,,,,,,,,,,0,33,33,33,,,,,,,,,,,,,,,,,,,,,,,,,,,,,,,,,,,,,,,,,,,,,,,,,,210.399556,210.8995403,210.8995403,210.8995403,211.6495276,211.899397,None,0,,,,,,,,,,,,,,,,,,,,,,,,,,,,chanda,1,2022-10-08_20h54.36.457,N-back_test,2022.2.4,60.02768477
H,None,,,,,,,,,,,,,0,34,34,34,,,,,,,,,,,,,,,,,,,,,,,,,,,,,,,,,,,,,,,,,,,,,,,,,,211.899397,212.3993106,212.3993106,212.3993106,213.1495612,213.3994598,None,1,,,,,,,,,,,,,,,,,,,,,,,,,,,,chanda,1,2022-10-08_20h54.36.457,N-back_test,2022.2.4,60.02768477
B,None,,,,,,,,,,,,,0,35,35,35,,,,,,,,,,,,,,,,,,,,,,,,,,,,,,,,,,,,,,,,,,,,,,,,,,213.3994598,213.8994908,213.8994908,213.8994908,214.6492868,214.8993571,None,1,,,,,,,,,,,,,,,,,,,,,,,,,,,,chanda,1,2022-10-08_20h54.36.457,N-back_test,2022.2.4,60.02768477
C,None,,,,,,,,,,,,,0,36,36,36,,,,,,,,,,,,,,,,,,,,,,,,,,,,,,,,,,,,,,,,,,,,,,,,,,214.8993571,215.3994312,215.3994312,215.3994312,216.1491827,216.3992757,None,1,,,,,,,,,,,,,,,,,,,,,,,,,,,,chanda,1,2022-10-08_20h54.36.457,N-back_test,2022.2.4,60.02768477
B,space,,,,,,,,,,,,,0,37,37,37,,,,,,,,,,,,,,,,,,,,,,,,,,,,,,,,,,,,,,,,,,,,,,,,,,216.3992757,216.89941,216.89941,216.89941,,,space,1,0.3426505,,,,,,,,,,,,,,,,,,,,,,,,,,,chanda,1,2022-10-08_20h54.36.457,N-back_test,2022.2.4,60.02768477
F,None,,,,,,,,,,,,,0,38,38,38,,,,,,,,,,,,,,,,,,,,,,,,,,,,,,,,,,,,,,,,,,,,,,,,,,217.2660428,217.7658506,217.7658506,217.7658506,218.5157594,218.7658305,None,1,,,,,,,,,,,,,,,,,,,,,,,,,,,,chanda,1,2022-10-08_20h54.36.457,N-back_test,2022.2.4,60.02768477
J,None,,,,,,,,,,,,,0,39,39,39,,,,,,,,,,,,,,,,,,,,,,,,,,,,,,,,,,,,,,,,,,,,,,,,,,218.7658305,219.2660446,219.2660446,219.2660446,220.0159979,220.2658654,None,1,,,,,,,,,,,,,,,,,,,,,,,,,,,,chanda,1,2022-10-08_20h54.36.457,N-back_test,2022.2.4,60.02768477
F,space,,,,,,,,,,,,,0,40,40,40,,,,,,,,,,,,,,,,,,,,,,,,,,,,,,,,,,,,,,,,,,,,,,,,,,220.2658654,220.7657512,220.7657512,220.7657512,,,space,1,0.3188157,,,,,,,,,,,,,,,,,,,,,,,,,,,chanda,1,2022-10-08_20h54.36.457,N-back_test,2022.2.4,60.02768477
B,None,,,,,,,,,,,,,0,41,41,41,,,,,,,,,,,,,,,,,,,,,,,,,,,,,,,,,,,,,,,,,,,,,,,,,,221.1158097,221.616062,221.616062,221.616062,222.3657474,222.6159102,None,1,,,,,,,,,,,,,,,,,,,,,,,,,,,,chanda,1,2022-10-08_20h54.36.457,N-back_test,2022.2.4,60.02768477
B,None,,,,,,,,,,,,,0,42,42,42,,,,,,,,,,,,,,,,,,,,,,,,,,,,,,,,,,,,,,,,,,,,,,,,,,222.6159102,223.1157481,223.1157481,223.1157481,223.8659813,224.1159645,None,1,,,,,,,,,,,,,,,,,,,,,,,,,,,,chanda,1,2022-10-08_20h54.36.457,N-back_test,2022.2.4,60.02768477
B,space,,,,,,,,,,,,,0,43,43,43,,,,,,,,,,,,,,,,,,,,,,,,,,,,,,,,,,,,,,,,,,,,,,,,,,224.1159645,224.6158787,224.6158787,224.6158787,225.3660027,,space,1,0.944025,,,,,,,,,,,,,,,,,,,,,,,,,,,chanda,1,2022-10-08_20h54.36.457,N-back_test,2022.2.4,60.02768477
G,None,,,,,,,,,,,,,0,44,44,44,,,,,,,,,,,,,,,,,,,,,,,,,,,,,,,,,,,,,,,,,,,,,,,,,,225.5826139,226.0824012,226.0824012,226.0824012,226.8326537,227.0826573,None,1,,,,,,,,,,,,,,,,,,,,,,,,,,,,chanda,1,2022-10-08_20h54.36.457,N-back_test,2022.2.4,60.02768477
B,space,,,,,,,,,,,,,0,45,45,45,,,,,,,,,,,,,,,,,,,,,,,,,,,,,,,,,,,,,,,,,,,,,,,,,,227.0826573,227.5825403,227.5825403,227.5825403,228.3322723,228.5823473,None,0,,,,,,,,,,,,,,,,,,,,,,,,,,,,chanda,1,2022-10-08_20h54.36.457,N-back_test,2022.2.4,60.02768477
H,None,,,,,,,,,,,,,0,46,46,46,,,,,,,,,,,,,,,,,,,,,,,,,,,,,,,,,,,,,,,,,,,,,,,,,,228.5823473,229.0823832,229.0823832,229.0823832,229.8324584,230.0825655,None,1,,,,,,,,,,,,,,,,,,,,,,,,,,,,chanda,1,2022-10-08_20h54.36.457,N-back_test,2022.2.4,60.02768477
G,None,,,,,,,,,,,,,0,47,47,47,,,,,,,,,,,,,,,,,,,,,,,,,,,,,,,,,,,,,,,,,,,,,,,,,,230.0825655,230.582586,230.582586,230.582586,231.3325517,231.5825342,None,1,,,,,,,,,,,,,,,,,,,,,,,,,,,,chanda,1,2022-10-08_20h54.36.457,N-back_test,2022.2.4,60.02768477
H,space,,,,,,,,,,,,,0,48,48,48,,,,,,,,,,,,,,,,,,,,,,,,,,,,,,,,,,,,,,,,,,,,,,,,,,231.5825342,232.0824429,232.0824429,232.0824429,232.8324915,233.0823633,None,0,,,,,,,,,,,,,,,,,,,,,,,,,,,,chanda,1,2022-10-08_20h54.36.457,N-back_test,2022.2.4,60.02768477
A,None,,,,,,,,,,,,,0,49,49,49,,,,,,,,,,,,,,,,,,,,,,,,,,,,,,,,,,,,,,,,,,,,,,,,,,233.0823633,233.5824647,233.5824647,233.5824647,234.3322659,234.5823092,None,1,,,,,,,,,,,,,,,,,,,,,,,,,,,,chanda,1,2022-10-08_20h54.36.457,N-back_test,2022.2.4,60.02768477
,,,,,,,,,,,,,,,,,,,,,,,,,,,,,,,,,,,,,,,,,,,,,,,,,,,,,,,,,,,,,,,,,,,,,,,,,,,,234.5823092,234.5823092,space,57.3624353,,,,,,,,,,,,,,,,,,,,,,,chanda,1,2022-10-08_20h54.36.457,N-back_test,2022.2.4,60.02768477
E,None,,,,,,,,,,,,,,,,,0,0,0,0,,,,,,,,,,,,,,,,,,,,,,,,,,,,,,,,,,,,,,,,,,,,,,,,,,,,,,,,,,,291.9647885,292.4645205,292.4645205,292.4645205,293.4647021,293.4647021,None,,,,,,,,,,,,,,,,chanda,1,2022-10-08_20h54.36.457,N-back_test,2022.2.4,60.02768477
A,None,,,,,,,,,,,,,,,,,0,1,1,1,,,,,,,,,,,,,,,,,,,,,,,,,,,,,,,,,,,,,,,,,,,,,,,,,,,,,,,,,,,293.4647021,293.9648891,293.9648891,293.9648891,294.9645784,294.9645784,None,,,,,,,,,,,,,,,,chanda,1,2022-10-08_20h54.36.457,N-back_test,2022.2.4,60.02768477
H,None,,,,,,,,,,,,,,,,,0,2,2,2,,,,,,,,,,,,,,,,,,,,,,,,,,,,,,,,,,,,,,,,,,,,,,,,,,,,,,,,,,,294.9645784,295.4644182,295.4644182,295.4644182,296.4645746,296.4645746,None,,,,,,,,,,,,,,,,chanda,1,2022-10-08_20h54.36.457,N-back_test,2022.2.4,60.02768477
B,None,,,,,,,,,,,,,,,,,0,3,3,3,,,,,,,,,,,,,,,,,,,,,,,,,,,,,,,,,,,,,,,,,,,,,,,,,,,,,,,,,,,296.4645746,296.9644168,296.9644168,296.9644168,297.964581,297.964581,None,,,,,,,,,,,,,,,,chanda,1,2022-10-08_20h54.36.457,N-back_test,2022.2.4,60.02768477
A,space,,,,,,,,,,,,,,,,,0,4,4,4,,,,,,,,,,,,,,,,,,,,,,,,,,,,,,,,,,,,,,,,,,,,,,,,,,,,,,,,,,,297.964581,298.4645943,298.4645943,298.4645943,299.4644461,299.4644461,None,,,,,,,,,,,,,,,,chanda,1,2022-10-08_20h54.36.457,N-back_test,2022.2.4,60.02768477
F,None,,,,,,,,,,,,,,,,,0,5,5,5,,,,,,,,,,,,,,,,,,,,,,,,,,,,,,,,,,,,,,,,,,,,,,,,,,,,,,,,,,,299.4644461,299.964379,299.964379,299.964379,300.9645362,300.9645362,None,,,,,,,,,,,,,,,,chanda,1,2022-10-08_20h54.36.457,N-back_test,2022.2.4,60.02768477
C,None,,,,,,,,,,,,,,,,,0,6,6,6,,,,,,,,,,,,,,,,,,,,,,,,,,,,,,,,,,,,,,,,,,,,,,,,,,,,,,,,,,,300.9645362,301.4643402,301.4643402,301.4643402,302.4644549,302.4644549,None,,,,,,,,,,,,,,,,chanda,1,2022-10-08_20h54.36.457,N-back_test,2022.2.4,60.02768477
E,None,,,,,,,,,,,,,,,,,0,7,7,7,,,,,,,,,,,,,,,,,,,,,,,,,,,,,,,,,,,,,,,,,,,,,,,,,,,,,,,,,,,302.4644549,302.9645553,302.9645553,302.9645553,303.9644085,303.9644085,None,,,,,,,,,,,,,,,,chanda,1,2022-10-08_20h54.36.457,N-back_test,2022.2.4,60.02768477
D,None,,,,,,,,,,,,,,,,,0,8,8,8,,,,,,,,,,,,,,,,,,,,,,,,,,,,,,,,,,,,,,,,,,,,,,,,,,,,,,,,,,,303.9644085,304.4645049,304.4645049,304.4645049,305.4642652,305.4642652,None,,,,,,,,,,,,,,,,chanda,1,2022-10-08_20h54.36.457,N-back_test,2022.2.4,60.02768477
C,space,,,,,,,,,,,,,,,,,0,9,9,9,,,,,,,,,,,,,,,,,,,,,,,,,,,,,,,,,,,,,,,,,,,,,,,,,,,,,,,,,,,305.4642652,305.9642292,305.9642292,305.9642292,306.9642583,306.9642583,None,,,,,,,,,,,,,,,,chanda,1,2022-10-08_20h54.36.457,N-back_test,2022.2.4,60.02768477
,,,,,,,,,,,,,,,,,,,,,,,,,,,,,,,,,,,,,,,,,,,,,,,,,,,,,,,,,,,,,,,,,,,,,,,,,,,,,,,,,,,,,,,306.9642583,306.9642583,space,76.7958337,,,,,,,,,,,,chanda,1,2022-10-08_20h54.36.457,N-back_test,2022.2.4,60.02768477
A,None,,,,,,,,,,,,,,,,,,,,,0,0,0,0,,,,,,,,,,,,,,,,,,,,,,,,,,,,,,,,,,,,,,,,,,,,,,,,,,,,,,,,,,,,,,,,,,383.7802795,384.2797461,384.2797461,384.2797461,385.0296207,385.2796146,None,1,,,,chanda,1,2022-10-08_20h54.36.457,N-back_test,2022.2.4,60.02768477
C,None,,,,,,,,,,,,,,,,,,,,,0,1,1,1,,,,,,,,,,,,,,,,,,,,,,,,,,,,,,,,,,,,,,,,,,,,,,,,,,,,,,,,,,,,,,,,,,385.2796146,385.7795155,385.7795155,385.7795155,386.5296989,386.7797106,None,1,,,,chanda,1,2022-10-08_20h54.36.457,N-back_test,2022.2.4,60.02768477
G,None,,,,,,,,,,,,,,,,,,,,,0,2,2,2,,,,,,,,,,,,,,,,,,,,,,,,,,,,,,,,,,,,,,,,,,,,,,,,,,,,,,,,,,,,,,,,,,386.7797106,387.2796791,387.2796791,387.2796791,388.0296026,388.2796435,None,1,,,,chanda,1,2022-10-08_20h54.36.457,N-back_test,2022.2.4,60.02768477
A,space,,,,,,,,,,,,,,,,,,,,,0,3,3,3,,,,,,,,,,,,,,,,,,,,,,,,,,,,,,,,,,,,,,,,,,,,,,,,,,,,,,,,,,,,,,,,,,388.2796435,388.7796616,388.7796616,388.7796616,,,space,1,0.4903586,,,chanda,1,2022-10-08_20h54.36.457,N-back_test,2022.2.4,60.02768477
B,None,,,,,,,,,,,,,,,,,,,,,0,4,4,4,,,,,,,,,,,,,,,,,,,,,,,,,,,,,,,,,,,,,,,,,,,,,,,,,,,,,,,,,,,,,,,,,,389.2964084,389.7962918,389.7962918,389.7962918,390.5462865,390.7962259,None,1,,,,chanda,1,2022-10-08_20h54.36.457,N-back_test,2022.2.4,60.02768477
H,None,,,,,,,,,,,,,,,,,,,,,0,5,5,5,,,,,,,,,,,,,,,,,,,,,,,,,,,,,,,,,,,,,,,,,,,,,,,,,,,,,,,,,,,,,,,,,,390.7962259,391.2959672,391.2959672,391.2959672,392.0460439,392.2961841,None,1,,,,chanda,1,2022-10-08_20h54.36.457,N-back_test,2022.2.4,60.02768477
A,None,,,,,,,,,,,,,,,,,,,,,0,6,6,6,,,,,,,,,,,,,,,,,,,,,,,,,,,,,,,,,,,,,,,,,,,,,,,,,,,,,,,,,,,,,,,,,,392.2961841,392.7962562,392.7962562,392.7962562,393.5466349,393.7959782,None,1,,,,chanda,1,2022-10-08_20h54.36.457,N-back_test,2022.2.4,60.02768477
I,None,,,,,,,,,,,,,,,,,,,,,0,7,7,7,,,,,,,,,,,,,,,,,,,,,,,,,,,,,,,,,,,,,,,,,,,,,,,,,,,,,,,,,,,,,,,,,,393.7959782,394.2961707,394.2961707,394.2961707,395.0459869,395.2960331,None,1,,,,chanda,1,2022-10-08_20h54.36.457,N-back_test,2022.2.4,60.02768477
H,space,,,,,,,,,,,,,,,,,,,,,0,8,8,8,,,,,,,,,,,,,,,,,,,,,,,,,,,,,,,,,,,,,,,,,,,,,,,,,,,,,,,,,,,,,,,,,,395.2960331,395.7962129,395.7962129,395.7962129,396.5461193,396.7959695,None,0,,,,chanda,1,2022-10-08_20h54.36.457,N-back_test,2022.2.4,60.02768477
D,None,,,,,,,,,,,,,,,,,,,,,0,9,9,9,,,,,,,,,,,,,,,,,,,,,,,,,,,,,,,,,,,,,,,,,,,,,,,,,,,,,,,,,,,,,,,,,,396.7959695,397.2961477,397.2961477,397.2961477,398.0459674,398.296141,None,1,,,,chanda,1,2022-10-08_20h54.36.457,N-back_test,2022.2.4,60.02768477
D,None,,,,,,,,,,,,,,,,,,,,,0,10,10,10,,,,,,,,,,,,,,,,,,,,,,,,,,,,,,,,,,,,,,,,,,,,,,,,,,,,,,,,,,,,,,,,,,398.296141,398.7960319,398.7960319,398.7960319,,,space,0,0.6407906,,,chanda,1,2022-10-08_20h54.36.457,N-back_test,2022.2.4,60.02768477
E,None,,,,,,,,,,,,,,,,,,,,,0,11,11,11,,,,,,,,,,,,,,,,,,,,,,,,,,,,,,,,,,,,,,,,,,,,,,,,,,,,,,,,,,,,,,,,,,399.4626286,399.9629401,399.9629401,399.9629401,400.7126595,400.9626638,None,1,,,,chanda,1,2022-10-08_20h54.36.457,N-back_test,2022.2.4,60.02768477
G,None,,,,,,,,,,,,,,,,,,,,,0,12,12,12,,,,,,,,,,,,,,,,,,,,,,,,,,,,,,,,,,,,,,,,,,,,,,,,,,,,,,,,,,,,,,,,,,400.9626638,401.4626863,401.4626863,401.4626863,402.2126687,402.462628,None,1,,,,chanda,1,2022-10-08_20h54.36.457,N-back_test,2022.2.4,60.02768477
D,space,,,,,,,,,,,,,,,,,,,,,0,13,13,13,,,,,,,,,,,,,,,,,,,,,,,,,,,,,,,,,,,,,,,,,,,,,,,,,,,,,,,,,,,,,,,,,,402.462628,402.9628979,402.9628979,402.9628979,,,space,1,0.6112435,,,chanda,1,2022-10-08_20h54.36.457,N-back_test,2022.2.4,60.02768477
H,None,,,,,,,,,,,,,,,,,,,,,0,14,14,14,,,,,,,,,,,,,,,,,,,,,,,,,,,,,,,,,,,,,,,,,,,,,,,,,,,,,,,,,,,,,,,,,,403.5961833,404.0959982,404.0959982,404.0959982,404.8459998,405.0958341,None,1,,,,chanda,1,2022-10-08_20h54.36.457,N-back_test,2022.2.4,60.02768477
I,None,,,,,,,,,,,,,,,,,,,,,0,15,15,15,,,,,,,,,,,,,,,,,,,,,,,,,,,,,,,,,,,,,,,,,,,,,,,,,,,,,,,,,,,,,,,,,,405.0958341,405.5960425,405.5960425,405.5960425,406.3457191,406.5959328,None,1,,,,chanda,1,2022-10-08_20h54.36.457,N-back_test,2022.2.4,60.02768477
A,None,,,,,,,,,,,,,,,,,,,,,0,16,16,16,,,,,,,,,,,,,,,,,,,,,,,,,,,,,,,,,,,,,,,,,,,,,,,,,,,,,,,,,,,,,,,,,,406.5959328,407.0959139,407.0959139,407.0959139,407.8461373,408.0960331,None,1,,,,chanda,1,2022-10-08_20h54.36.457,N-back_test,2022.2.4,60.02768477
H,space,,,,,,,,,,,,,,,,,,,,,0,17,17,17,,,,,,,,,,,,,,,,,,,,,,,,,,,,,,,,,,,,,,,,,,,,,,,,,,,,,,,,,,,,,,,,,,408.0960331,408.5957876,408.5957876,408.5957876,409.3458859,409.5958118,None,0,,,,chanda,1,2022-10-08_20h54.36.457,N-back_test,2022.2.4,60.02768477
B,None,,,,,,,,,,,,,,,,,,,,,0,18,18,18,,,,,,,,,,,,,,,,,,,,,,,,,,,,,,,,,,,,,,,,,,,,,,,,,,,,,,,,,,,,,,,,,,409.5958118,410.0958649,410.0958649,410.0958649,410.846161,411.0957783,None,1,,,,chanda,1,2022-10-08_20h54.36.457,N-back_test,2022.2.4,60.02768477
B,None,,,,,,,,,,,,,,,,,,,,,0,19,19,19,,,,,,,,,,,,,,,,,,,,,,,,,,,,,,,,,,,,,,,,,,,,,,,,,,,,,,,,,,,,,,,,,,411.0957783,411.5957048,411.5957048,411.5957048,,,space,0,0.6236983,,,chanda,1,2022-10-08_20h54.36.457,N-back_test,2022.2.4,60.02768477
I,None,,,,,,,,,,,,,,,,,,,,,0,20,20,20,,,,,,,,,,,,,,,,,,,,,,,,,,,,,,,,,,,,,,,,,,,,,,,,,,,,,,,,,,,,,,,,,,412.245638,412.7459016,412.7459016,412.7459016,413.495812,413.74584,None,1,,,,chanda,1,2022-10-08_20h54.36.457,N-back_test,2022.2.4,60.02768477
B,space,,,,,,,,,,,,,,,,,,,,,0,21,21,21,,,,,,,,,,,,,,,,,,,,,,,,,,,,,,,,,,,,,,,,,,,,,,,,,,,,,,,,,,,,,,,,,,413.74584,414.2457885,414.2457885,414.2457885,414.9956346,415.2457904,None,0,,,,chanda,1,2022-10-08_20h54.36.457,N-back_test,2022.2.4,60.02768477
I,None,,,,,,,,,,,,,,,,,,,,,0,22,22,22,,,,,,,,,,,,,,,,,,,,,,,,,,,,,,,,,,,,,,,,,,,,,,,,,,,,,,,,,,,,,,,,,,415.2457904,415.7473149,415.7473149,415.7473149,416.5124848,,None,1,,,,chanda,1,2022-10-08_20h54.36.457,N-back_test,2022.2.4,60.02768477
C,None,,,,,,,,,,,,,,,,,,,,,0,23,23,23,,,,,,,,,,,,,,,,,,,,,,,,,,,,,,,,,,,,,,,,,,,,,,,,,,,,,,,,,,,,,,,,,,416.7622423,417.2624209,417.2457979,417.2457979,417.9955546,418.2455737,None,1,,,,chanda,1,2022-10-08_20h54.36.457,N-back_test,2022.2.4,60.02768477
A,None,,,,,,,,,,,,,,,,,,,,,0,24,24,24,,,,,,,,,,,,,,,,,,,,,,,,,,,,,,,,,,,,,,,,,,,,,,,,,,,,,,,,,,,,,,,,,,418.2455737,418.7461335,418.7461335,418.7461335,419.4955571,419.7455674,None,1,,,,chanda,1,2022-10-08_20h54.36.457,N-back_test,2022.2.4,60.02768477
I,space,,,,,,,,,,,,,,,,,,,,,0,25,25,25,,,,,,,,,,,,,,,,,,,,,,,,,,,,,,,,,,,,,,,,,,,,,,,,,,,,,,,,,,,,,,,,,,419.7455674,420.2457528,420.2457528,420.2457528,,,space,1,0.4638782,,,chanda,1,2022-10-08_20h54.36.457,N-back_test,2022.2.4,60.02768477
B,None,,,,,,,,,,,,,,,,,,,,,0,26,26,26,,,,,,,,,,,,,,,,,,,,,,,,,,,,,,,,,,,,,,,,,,,,,,,,,,,,,,,,,,,,,,,,,,420.7289617,421.2288123,421.2288123,421.2288123,421.9787678,422.2289467,None,1,,,,chanda,1,2022-10-08_20h54.36.457,N-back_test,2022.2.4,60.02768477
G,None,,,,,,,,,,,,,,,,,,,,,0,27,27,27,,,,,,,,,,,,,,,,,,,,,,,,,,,,,,,,,,,,,,,,,,,,,,,,,,,,,,,,,,,,,,,,,,422.2289467,422.7291188,422.7291188,422.7291188,423.4789369,423.7288044,None,1,,,,chanda,1,2022-10-08_20h54.36.457,N-back_test,2022.2.4,60.02768477
E,None,,,,,,,,,,,,,,,,,,,,,0,28,28,28,,,,,,,,,,,,,,,,,,,,,,,,,,,,,,,,,,,,,,,,,,,,,,,,,,,,,,,,,,,,,,,,,,423.7288044,424.2287932,424.2287932,424.2287932,424.9787842,425.2287137,None,1,,,,chanda,1,2022-10-08_20h54.36.457,N-back_test,2022.2.4,60.02768477
B,space,,,,,,,,,,,,,,,,,,,,,0,29,29,29,,,,,,,,,,,,,,,,,,,,,,,,,,,,,,,,,,,,,,,,,,,,,,,,,,,,,,,,,,,,,,,,,,425.2287137,425.728812,425.728812,425.728812,426.4790025,426.7289284,None,0,,,,chanda,1,2022-10-08_20h54.36.457,N-back_test,2022.2.4,60.02768477
F,None,,,,,,,,,,,,,,,,,,,,,0,30,30,30,,,,,,,,,,,,,,,,,,,,,,,,,,,,,,,,,,,,,,,,,,,,,,,,,,,,,,,,,,,,,,,,,,426.7289284,427.2291857,427.2291857,427.2291857,427.9786818,428.2287318,None,1,,,,chanda,1,2022-10-08_20h54.36.457,N-back_test,2022.2.4,60.02768477
H,None,,,,,,,,,,,,,,,,,,,,,0,31,31,31,,,,,,,,,,,,,,,,,,,,,,,,,,,,,,,,,,,,,,,,,,,,,,,,,,,,,,,,,,,,,,,,,,428.2287318,428.7286686,428.7286686,428.7286686,429.4789366,429.7288939,None,1,,,,chanda,1,2022-10-08_20h54.36.457,N-back_test,2022.2.4,60.02768477
A,None,,,,,,,,,,,,,,,,,,,,,0,32,32,32,,,,,,,,,,,,,,,,,,,,,,,,,,,,,,,,,,,,,,,,,,,,,,,,,,,,,,,,,,,,,,,,,,429.7288939,430.2286854,430.2286854,430.2286854,430.978798,431.2287206,None,1,,,,chanda,1,2022-10-08_20h54.36.457,N-back_test,2022.2.4,60.02768477
G,None,,,,,,,,,,,,,,,,,,,,,0,33,33,33,,,,,,,,,,,,,,,,,,,,,,,,,,,,,,,,,,,,,,,,,,,,,,,,,,,,,,,,,,,,,,,,,,431.2287206,431.7286577,431.7286577,431.7286577,432.4786111,432.7288159,None,1,,,,chanda,1,2022-10-08_20h54.36.457,N-back_test,2022.2.4,60.02768477
H,space,,,,,,,,,,,,,,,,,,,,,0,34,34,34,,,,,,,,,,,,,,,,,,,,,,,,,,,,,,,,,,,,,,,,,,,,,,,,,,,,,,,,,,,,,,,,,,432.7288159,433.2288446,433.2288446,433.2288446,433.9788392,434.2286699,None,0,,,,chanda,1,2022-10-08_20h54.36.457,N-back_test,2022.2.4,60.02768477
A,None,,,,,,,,,,,,,,,,,,,,,0,35,35,35,,,,,,,,,,,,,,,,,,,,,,,,,,,,,,,,,,,,,,,,,,,,,,,,,,,,,,,,,,,,,,,,,,434.2286699,434.7289068,434.7289068,434.7289068,,,space,0,0.3341077,,,chanda,1,2022-10-08_20h54.36.457,N-back_test,2022.2.4,60.02768477
C,None,,,,,,,,,,,,,,,,,,,,,0,36,36,36,,,,,,,,,,,,,,,,,,,,,,,,,,,,,,,,,,,,,,,,,,,,,,,,,,,,,,,,,,,,,,,,,,435.0955121,435.5955159,435.5955159,435.5955159,436.3454441,436.5954279,None,1,,,,chanda,1,2022-10-08_20h54.36.457,N-back_test,2022.2.4,60.02768477
E,None,,,,,,,,,,,,,,,,,,,,,0,37,37,37,,,,,,,,,,,,,,,,,,,,,,,,,,,,,,,,,,,,,,,,,,,,,,,,,,,,,,,,,,,,,,,,,,436.5954279,437.0954704,437.0954704,437.0954704,437.8452516,438.0954366,None,1,,,,chanda,1,2022-10-08_20h54.36.457,N-back_test,2022.2.4,60.02768477
F,None,,,,,,,,,,,,,,,,,,,,,0,38,38,38,,,,,,,,,,,,,,,,,,,,,,,,,,,,,,,,,,,,,,,,,,,,,,,,,,,,,,,,,,,,,,,,,,438.0954366,438.5953137,438.5953137,438.5953137,439.3453124,439.5952444,None,1,,,,chanda,1,2022-10-08_20h54.36.457,N-back_test,2022.2.4,60.02768477
G,None,,,,,,,,,,,,,,,,,,,,,0,39,39,39,,,,,,,,,,,,,,,,,,,,,,,,,,,,,,,,,,,,,,,,,,,,,,,,,,,,,,,,,,,,,,,,,,439.5952444,440.0951879,440.0951879,440.0951879,440.8454175,441.0951345,None,1,,,,chanda,1,2022-10-08_20h54.36.457,N-back_test,2022.2.4,60.02768477
E,space,,,,,,,,,,,,,,,,,,,,,0,40,40,40,,,,,,,,,,,,,,,,,,,,,,,,,,,,,,,,,,,,,,,,,,,,,,,,,,,,,,,,,,,,,,,,,,441.0951345,441.5952995,441.5952995,441.5952995,,,space,1,0.3184683,,,chanda,1,2022-10-08_20h54.36.457,N-back_test,2022.2.4,60.02768477
D,None,,,,,,,,,,,,,,,,,,,,,0,41,41,41,,,,,,,,,,,,,,,,,,,,,,,,,,,,,,,,,,,,,,,,,,,,,,,,,,,,,,,,,,,,,,,,,,441.9451713,442.4455713,442.4455713,442.4455713,443.1952361,443.445286,None,1,,,,chanda,1,2022-10-08_20h54.36.457,N-back_test,2022.2.4,60.02768477
I,None,,,,,,,,,,,,,,,,,,,,,0,42,42,42,,,,,,,,,,,,,,,,,,,,,,,,,,,,,,,,,,,,,,,,,,,,,,,,,,,,,,,,,,,,,,,,,,443.445286,443.9453147,443.9453147,443.9453147,444.6956429,444.9450411,None,1,,,,chanda,1,2022-10-08_20h54.36.457,N-back_test,2022.2.4,60.02768477
B,None,,,,,,,,,,,,,,,,,,,,,0,43,43,43,,,,,,,,,,,,,,,,,,,,,,,,,,,,,,,,,,,,,,,,,,,,,,,,,,,,,,,,,,,,,,,,,,444.9450411,445.4453108,445.4453108,445.4453108,446.1952857,446.4450802,None,1,,,,chanda,1,2022-10-08_20h54.36.457,N-back_test,2022.2.4,60.02768477
D,space,,,,,,,,,,,,,,,,,,,,,0,44,44,44,,,,,,,,,,,,,,,,,,,,,,,,,,,,,,,,,,,,,,,,,,,,,,,,,,,,,,,,,,,,,,,,,,446.4450802,446.9452371,446.9452371,446.9452371,447.6952026,447.945153,None,0,,,,chanda,1,2022-10-08_20h54.36.457,N-back_test,2022.2.4,60.02768477
H,None,,,,,,,,,,,,,,,,,,,,,0,45,45,45,,,,,,,,,,,,,,,,,,,,,,,,,,,,,,,,,,,,,,,,,,,,,,,,,,,,,,,,,,,,,,,,,,447.945153,448.4450098,448.4450098,448.4450098,449.1952373,449.444747,None,1,,,,chanda,1,2022-10-08_20h54.36.457,N-back_test,2022.2.4,60.02768477
A,None,,,,,,,,,,,,,,,,,,,,,0,46,46,46,,,,,,,,,,,,,,,,,,,,,,,,,,,,,,,,,,,,,,,,,,,,,,,,,,,,,,,,,,,,,,,,,,449.444747,449.9452336,449.9452336,449.9452336,450.6952056,450.9449396,None,1,,,,chanda,1,2022-10-08_20h54.36.457,N-back_test,2022.2.4,60.02768477
C,None,,,,,,,,,,,,,,,,,,,,,0,47,47,47,,,,,,,,,,,,,,,,,,,,,,,,,,,,,,,,,,,,,,,,,,,,,,,,,,,,,,,,,,,,,,,,,,450.9449396,451.4452205,451.4452205,451.4452205,452.1951869,452.4449812,None,1,,,,chanda,1,2022-10-08_20h54.36.457,N-back_test,2022.2.4,60.02768477
E,None,,,,,,,,,,,,,,,,,,,,,0,48,48,48,,,,,,,,,,,,,,,,,,,,,,,,,,,,,,,,,,,,,,,,,,,,,,,,,,,,,,,,,,,,,,,,,,452.4449812,452.9451754,452.9451754,452.9451754,453.6951531,453.9451307,None,1,,,,chanda,1,2022-10-08_20h54.36.457,N-back_test,2022.2.4,60.02768477
A,space,,,,,,,,,,,,,,,,,,,,,0,49,49,49,,,,,,,,,,,,,,,,,,,,,,,,,,,,,,,,,,,,,,,,,,,,,,,,,,,,,,,,,,,,,,,,,,453.9451307,454.4451512,454.4451512,454.4451512,455.1950329,455.4451251,None,0,,,,chanda,1,2022-10-08_20h54.36.457,N-back_test,2022.2.4,60.02768477
,,,,,,,,,,,,,,,,,,,,,,,,,,,,,,,,,,,,,,,,,,,,,,,,,,,,,,,,,,,,,,,,,,,,,,,,,,,,,,,,,,,,,,,,,,,,,,,,,,,,455.4451251,456.9451435,,,,,,
