letter,corrAns,trials.thisRepN,trials.thisTrialN,trials.thisN,trials.thisIndex,trials_2.thisRepN,trials_2.thisTrialN,trials_2.thisN,trials_2.thisIndex,trials_3.thisRepN,trials_3.thisTrialN,trials_3.thisN,trials_3.thisIndex,trials_4.thisRepN,trials_4.thisTrialN,trials_4.thisN,trials_4.thisIndex,trials_5.thisRepN,trials_5.thisTrialN,trials_5.thisN,trials_5.thisIndex,trials_6.thisRepN,trials_6.thisTrialN,trials_6.thisN,trials_6.thisIndex,text.started,key_resp.started,key_resp.keys,key_resp.rt,fixation.started,text_2.started,key_resp_2.started,fixation.stopped,text_2.stopped,key_resp_2.stopped,key_resp_2.keys,key_resp_2.corr,key_resp_2.rt,text_4.started,key_resp_4.started,key_resp_4.keys,key_resp_4.rt,fixation1.started,text_3.started,key_resp_3.started,fixation1.stopped,text_3.stopped,key_resp_3.stopped,key_resp_3.keys,key_resp_3.corr,key_resp_3.rt,text_5.started,key_resp_5.started,key_resp_5.keys,key_resp_5.rt,fixation2.started,text_6.started,key_resp_6.started,fixation2.stopped,text_6.stopped,key_resp_6.stopped,key_resp_6.keys,key_resp_6.corr,key_resp_6.rt,text_7.started,key_resp_7.started,key_resp_7.keys,key_resp_7.rt,fixation3.started,fixation3.stopped,text_8.started,key_resp_8.started,text_8.stopped,key_resp_8.stopped,key_resp_8.keys,key_resp_8.corr,key_resp_8.rt,text_9.started,key_resp_9.started,key_resp_9.keys,key_resp_9.rt,fixation4.started,fixation4.stopped,text_10.started,key_resp_10.started,text_10.stopped,key_resp_10.stopped,key_resp_10.keys,key_resp_10.rt,text_12.started,key_resp_12.started,key_resp_12.keys,key_resp_12.rt,fixation5.started,fixation5.stopped,text_11.started,key_resp_11.started,text_11.stopped,key_resp_11.stopped,key_resp_11.keys,key_resp_11.corr,key_resp_11.rt,text_13.started,text_13.stopped,participant,session,date,expName,psychopyVersion,frameRate
,,,,,,,,,,,,,,,,,,,,,,,,,,20.4319215,20.4319215,space,4.6999464,,,,,,,,,,,,,,,,,,,,,,,,,,,,,,,,,,,,,,,,,,,,,,,,,,,,,,,,,,,,,,,,,,,,,,,,,,,,fulltrial,1,2022-10-08_15h13.00.390,N-back_test,2022.2.4,60.36318113
C,None,0,0,0,0,,,,,,,,,,,,,,,,,,,,,,,,,25.1567752,25.6552524,25.6552524,25.6716735,26.4052805,26.6554933,None,1,,,,,,,,,,,,,,,,,,,,,,,,,,,,,,,,,,,,,,,,,,,,,,,,,,,,,,,,,,,,,,,,,,,,fulltrial,1,2022-10-08_15h13.00.390,N-back_test,2022.2.4,60.36318113
X,None,0,1,1,1,,,,,,,,,,,,,,,,,,,,,,,,,26.6554933,27.1550998,27.1550998,27.1550998,27.9051611,28.1555989,None,1,,,,,,,,,,,,,,,,,,,,,,,,,,,,,,,,,,,,,,,,,,,,,,,,,,,,,,,,,,,,,,,,,,,,fulltrial,1,2022-10-08_15h13.00.390,N-back_test,2022.2.4,60.36318113
Y,None,0,2,2,2,,,,,,,,,,,,,,,,,,,,,,,,,28.1555989,28.6550253,28.6550253,28.6550253,29.405301,29.6551621,None,1,,,,,,,,,,,,,,,,,,,,,,,,,,,,,,,,,,,,,,,,,,,,,,,,,,,,,,,,,,,,,,,,,,,,fulltrial,1,2022-10-08_15h13.00.390,N-back_test,2022.2.4,60.36318113
Y,space,0,3,3,3,,,,,,,,,,,,,,,,,,,,,,,,,29.6551621,30.1383267,30.1383267,30.1552482,,,space,1,0.6969412,,,,,,,,,,,,,,,,,,,,,,,,,,,,,,,,,,,,,,,,,,,,,,,,,,,,,,,,,,,,,,,,,,,fulltrial,1,2022-10-08_15h13.00.390,N-back_test,2022.2.4,60.36318113
R,None,0,4,4,4,,,,,,,,,,,,,,,,,,,,,,,,,30.8552608,31.3549681,31.3549681,31.3549681,32.1053444,32.3549743,None,1,,,,,,,,,,,,,,,,,,,,,,,,,,,,,,,,,,,,,,,,,,,,,,,,,,,,,,,,,,,,,,,,,,,,fulltrial,1,2022-10-08_15h13.00.390,N-back_test,2022.2.4,60.36318113
O,None,0,5,5,5,,,,,,,,,,,,,,,,,,,,,,,,,32.3549743,32.8551947,32.8551947,32.8551947,33.605699,33.8551806,None,1,,,,,,,,,,,,,,,,,,,,,,,,,,,,,,,,,,,,,,,,,,,,,,,,,,,,,,,,,,,,,,,,,,,,fulltrial,1,2022-10-08_15h13.00.390,N-back_test,2022.2.4,60.36318113
T,None,0,6,6,6,,,,,,,,,,,,,,,,,,,,,,,,,33.8551806,34.3552513,34.3552513,34.3552513,35.1052356,35.3552057,None,1,,,,,,,,,,,,,,,,,,,,,,,,,,,,,,,,,,,,,,,,,,,,,,,,,,,,,,,,,,,,,,,,,,,,fulltrial,1,2022-10-08_15h13.00.390,N-back_test,2022.2.4,60.36318113
T,space,0,7,7,7,,,,,,,,,,,,,,,,,,,,,,,,,35.3552057,35.854879,35.854879,35.854879,,,space,1,0.4257721,,,,,,,,,,,,,,,,,,,,,,,,,,,,,,,,,,,,,,,,,,,,,,,,,,,,,,,,,,,,,,,,,,,fulltrial,1,2022-10-08_15h13.00.390,N-back_test,2022.2.4,60.36318113
Q,None,0,8,8,8,,,,,,,,,,,,,,,,,,,,,,,,,36.3050249,36.8052092,36.8052092,36.8052092,37.5552052,37.8052046,None,1,,,,,,,,,,,,,,,,,,,,,,,,,,,,,,,,,,,,,,,,,,,,,,,,,,,,,,,,,,,,,,,,,,,,fulltrial,1,2022-10-08_15h13.00.390,N-back_test,2022.2.4,60.36318113
Q,space,0,9,9,9,,,,,,,,,,,,,,,,,,,,,,,,,37.8052046,38.3051282,38.3051282,38.3051282,,,space,1,0.4123993,,,,,,,,,,,,,,,,,,,,,,,,,,,,,,,,,,,,,,,,,,,,,,,,,,,,,,,,,,,,,,,,,,,fulltrial,1,2022-10-08_15h13.00.390,N-back_test,2022.2.4,60.36318113
,,,,,,,,,,,,,,,,,,,,,,,,,,,,,,,,,,,,,,,38.738331,38.738331,space,9.4240247,,,,,,,,,,,,,,,,,,,,,,,,,,,,,,,,,,,,,,,,,,,,,,,,,,,,,,,,,,,,,,,fulltrial,1,2022-10-08_15h13.00.390,N-back_test,2022.2.4,60.36318113
I,None,,,,,0,0,0,0,,,,,,,,,,,,,,,,,,,,,,,,,,,,,,,,,,48.1910311,48.688172,48.688172,48.7048147,49.4380405,49.6881941,None,1,,,,,,,,,,,,,,,,,,,,,,,,,,,,,,,,,,,,,,,,,,,,,,,,,,,,,,,fulltrial,1,2022-10-08_15h13.00.390,N-back_test,2022.2.4,60.36318113
P,None,,,,,0,1,1,1,,,,,,,,,,,,,,,,,,,,,,,,,,,,,,,,,,49.6881941,50.1882761,50.1882761,50.1882761,50.9379495,51.1890578,None,1,,,,,,,,,,,,,,,,,,,,,,,,,,,,,,,,,,,,,,,,,,,,,,,,,,,,,,,fulltrial,1,2022-10-08_15h13.00.390,N-back_test,2022.2.4,60.36318113
O,None,,,,,0,2,2,2,,,,,,,,,,,,,,,,,,,,,,,,,,,,,,,,,,51.1890578,51.6886226,51.6886226,51.6886226,52.4381955,52.6883318,None,1,,,,,,,,,,,,,,,,,,,,,,,,,,,,,,,,,,,,,,,,,,,,,,,,,,,,,,,fulltrial,1,2022-10-08_15h13.00.390,N-back_test,2022.2.4,60.36318113
R,None,,,,,0,3,3,3,,,,,,,,,,,,,,,,,,,,,,,,,,,,,,,,,,52.6883318,53.1881807,53.1881807,53.1881807,53.937893,54.1883969,None,1,,,,,,,,,,,,,,,,,,,,,,,,,,,,,,,,,,,,,,,,,,,,,,,,,,,,,,,fulltrial,1,2022-10-08_15h13.00.390,N-back_test,2022.2.4,60.36318113
R,space,,,,,0,4,4,4,,,,,,,,,,,,,,,,,,,,,,,,,,,,,,,,,,54.1883969,54.6887742,54.6887742,54.6887742,55.4380944,55.687953,None,0,,,,,,,,,,,,,,,,,,,,,,,,,,,,,,,,,,,,,,,,,,,,,,,,,,,,,,,fulltrial,1,2022-10-08_15h13.00.390,N-back_test,2022.2.4,60.36318113
E,None,,,,,0,5,5,5,,,,,,,,,,,,,,,,,,,,,,,,,,,,,,,,,,55.687953,56.1881835,56.1881835,56.1881835,56.9380644,57.1893715,None,1,,,,,,,,,,,,,,,,,,,,,,,,,,,,,,,,,,,,,,,,,,,,,,,,,,,,,,,fulltrial,1,2022-10-08_15h13.00.390,N-back_test,2022.2.4,60.36318113
D,None,,,,,0,6,6,6,,,,,,,,,,,,,,,,,,,,,,,,,,,,,,,,,,57.1893715,57.6881817,57.6881817,57.7048201,58.438093,58.6883489,None,1,,,,,,,,,,,,,,,,,,,,,,,,,,,,,,,,,,,,,,,,,,,,,,,,,,,,,,,fulltrial,1,2022-10-08_15h13.00.390,N-back_test,2022.2.4,60.36318113
C,None,,,,,0,7,7,7,,,,,,,,,,,,,,,,,,,,,,,,,,,,,,,,,,58.6883489,59.1885262,59.1885262,59.1885262,59.9378288,60.1884863,None,1,,,,,,,,,,,,,,,,,,,,,,,,,,,,,,,,,,,,,,,,,,,,,,,,,,,,,,,fulltrial,1,2022-10-08_15h13.00.390,N-back_test,2022.2.4,60.36318113
W,None,,,,,0,8,8,8,,,,,,,,,,,,,,,,,,,,,,,,,,,,,,,,,,60.1884863,60.6882566,60.6882566,60.6882566,61.4379903,61.6882514,None,1,,,,,,,,,,,,,,,,,,,,,,,,,,,,,,,,,,,,,,,,,,,,,,,,,,,,,,,fulltrial,1,2022-10-08_15h13.00.390,N-back_test,2022.2.4,60.36318113
T,None,,,,,0,9,9,9,,,,,,,,,,,,,,,,,,,,,,,,,,,,,,,,,,61.6882514,62.1888637,62.1888637,62.1888637,62.93793,63.1882321,None,1,,,,,,,,,,,,,,,,,,,,,,,,,,,,,,,,,,,,,,,,,,,,,,,,,,,,,,,fulltrial,1,2022-10-08_15h13.00.390,N-back_test,2022.2.4,60.36318113
T,space,,,,,0,10,10,10,,,,,,,,,,,,,,,,,,,,,,,,,,,,,,,,,,63.1882321,63.6881023,63.6881023,63.6881023,64.4376986,,space,1,0.728773,,,,,,,,,,,,,,,,,,,,,,,,,,,,,,,,,,,,,,,,,,,,,,,,,,,,,,fulltrial,1,2022-10-08_15h13.00.390,N-back_test,2022.2.4,60.36318113
Q,None,,,,,0,11,11,11,,,,,,,,,,,,,,,,,,,,,,,,,,,,,,,,,,64.4376986,64.92143,64.92143,64.9379617,65.6712461,65.9212939,None,1,,,,,,,,,,,,,,,,,,,,,,,,,,,,,,,,,,,,,,,,,,,,,,,,,,,,,,,fulltrial,1,2022-10-08_15h13.00.390,N-back_test,2022.2.4,60.36318113
Q,space,,,,,0,12,12,12,,,,,,,,,,,,,,,,,,,,,,,,,,,,,,,,,,65.9379459,66.4376678,66.4376678,66.4376678,,,space,1,0.3553601,,,,,,,,,,,,,,,,,,,,,,,,,,,,,,,,,,,,,,,,,,,,,,,,,,,,,,fulltrial,1,2022-10-08_15h13.00.390,N-back_test,2022.2.4,60.36318113
R,None,,,,,0,13,13,13,,,,,,,,,,,,,,,,,,,,,,,,,,,,,,,,,,66.8212521,67.3045887,67.3045887,67.321148,68.0546233,68.3051223,None,1,,,,,,,,,,,,,,,,,,,,,,,,,,,,,,,,,,,,,,,,,,,,,,,,,,,,,,,fulltrial,1,2022-10-08_15h13.00.390,N-back_test,2022.2.4,60.36318113
K,None,,,,,0,14,14,14,,,,,,,,,,,,,,,,,,,,,,,,,,,,,,,,,,68.3051223,68.8046288,68.8046288,68.8046288,69.554733,69.8046662,None,1,,,,,,,,,,,,,,,,,,,,,,,,,,,,,,,,,,,,,,,,,,,,,,,,,,,,,,,fulltrial,1,2022-10-08_15h13.00.390,N-back_test,2022.2.4,60.36318113
K,space,,,,,0,15,15,15,,,,,,,,,,,,,,,,,,,,,,,,,,,,,,,,,,69.8046662,70.3211592,70.3211592,70.3052759,,,space,1,0.64865,,,,,,,,,,,,,,,,,,,,,,,,,,,,,,,,,,,,,,,,,,,,,,,,,,,,,,fulltrial,1,2022-10-08_15h13.00.390,N-back_test,2022.2.4,60.36318113
L,None,,,,,0,16,16,16,,,,,,,,,,,,,,,,,,,,,,,,,,,,,,,,,,70.9881997,71.4878857,71.4878857,71.4878857,72.2375633,72.4881218,None,1,,,,,,,,,,,,,,,,,,,,,,,,,,,,,,,,,,,,,,,,,,,,,,,,,,,,,,,fulltrial,1,2022-10-08_15h13.00.390,N-back_test,2022.2.4,60.36318113
C,None,,,,,0,17,17,17,,,,,,,,,,,,,,,,,,,,,,,,,,,,,,,,,,72.4881218,72.9883671,72.9883671,72.9883671,73.7375951,73.9880917,None,1,,,,,,,,,,,,,,,,,,,,,,,,,,,,,,,,,,,,,,,,,,,,,,,,,,,,,,,fulltrial,1,2022-10-08_15h13.00.390,N-back_test,2022.2.4,60.36318113
C,space,,,,,0,18,18,18,,,,,,,,,,,,,,,,,,,,,,,,,,,,,,,,,,73.9880917,74.4887585,74.4887585,74.4887585,,,space,1,0.6424538,,,,,,,,,,,,,,,,,,,,,,,,,,,,,,,,,,,,,,,,,,,,,,,,,,,,,,fulltrial,1,2022-10-08_15h13.00.390,N-back_test,2022.2.4,60.36318113
Y,None,,,,,0,19,19,19,,,,,,,,,,,,,,,,,,,,,,,,,,,,,,,,,,75.1544913,75.6543617,75.6543617,75.6543617,76.4042975,76.6546279,None,1,,,,,,,,,,,,,,,,,,,,,,,,,,,,,,,,,,,,,,,,,,,,,,,,,,,,,,,fulltrial,1,2022-10-08_15h13.00.390,N-back_test,2022.2.4,60.36318113
X,None,,,,,0,20,20,20,,,,,,,,,,,,,,,,,,,,,,,,,,,,,,,,,,76.6546279,77.1545607,77.1545607,77.1545607,77.9043339,78.1543589,None,1,,,,,,,,,,,,,,,,,,,,,,,,,,,,,,,,,,,,,,,,,,,,,,,,,,,,,,,fulltrial,1,2022-10-08_15h13.00.390,N-back_test,2022.2.4,60.36318113
W,None,,,,,0,21,21,21,,,,,,,,,,,,,,,,,,,,,,,,,,,,,,,,,,78.1543589,78.6542569,78.6542569,78.6542569,79.4044068,79.6546426,None,1,,,,,,,,,,,,,,,,,,,,,,,,,,,,,,,,,,,,,,,,,,,,,,,,,,,,,,,fulltrial,1,2022-10-08_15h13.00.390,N-back_test,2022.2.4,60.36318113
R,None,,,,,0,22,22,22,,,,,,,,,,,,,,,,,,,,,,,,,,,,,,,,,,79.6546426,80.1541409,80.1541409,80.1541409,,,space,0,0.5633904,,,,,,,,,,,,,,,,,,,,,,,,,,,,,,,,,,,,,,,,,,,,,,,,,,,,,,fulltrial,1,2022-10-08_15h13.00.390,N-back_test,2022.2.4,60.36318113
M,None,,,,,0,23,23,23,,,,,,,,,,,,,,,,,,,,,,,,,,,,,,,,,,80.7377421,81.2376388,81.2376388,81.2376388,81.9884007,82.2376731,None,1,,,,,,,,,,,,,,,,,,,,,,,,,,,,,,,,,,,,,,,,,,,,,,,,,,,,,,,fulltrial,1,2022-10-08_15h13.00.390,N-back_test,2022.2.4,60.36318113
M,space,,,,,0,24,24,24,,,,,,,,,,,,,,,,,,,,,,,,,,,,,,,,,,82.2376731,82.737395,82.737395,82.737395,,,space,1,0.277884,,,,,,,,,,,,,,,,,,,,,,,,,,,,,,,,,,,,,,,,,,,,,,,,,,,,,,fulltrial,1,2022-10-08_15h13.00.390,N-back_test,2022.2.4,60.36318113
E,None,,,,,0,25,25,25,,,,,,,,,,,,,,,,,,,,,,,,,,,,,,,,,,83.0376672,83.5373925,83.5373925,83.5373925,84.2875293,84.5373538,None,1,,,,,,,,,,,,,,,,,,,,,,,,,,,,,,,,,,,,,,,,,,,,,,,,,,,,,,,fulltrial,1,2022-10-08_15h13.00.390,N-back_test,2022.2.4,60.36318113
R,None,,,,,0,26,26,26,,,,,,,,,,,,,,,,,,,,,,,,,,,,,,,,,,84.5373538,85.0375888,85.0375888,85.0375888,85.7877791,86.0375605,None,1,,,,,,,,,,,,,,,,,,,,,,,,,,,,,,,,,,,,,,,,,,,,,,,,,,,,,,,fulltrial,1,2022-10-08_15h13.00.390,N-back_test,2022.2.4,60.36318113
U,None,,,,,0,27,27,27,,,,,,,,,,,,,,,,,,,,,,,,,,,,,,,,,,86.0375605,86.5375619,86.5375619,86.5375619,87.2875472,87.5374773,None,1,,,,,,,,,,,,,,,,,,,,,,,,,,,,,,,,,,,,,,,,,,,,,,,,,,,,,,,fulltrial,1,2022-10-08_15h13.00.390,N-back_test,2022.2.4,60.36318113
U,space,,,,,0,28,28,28,,,,,,,,,,,,,,,,,,,,,,,,,,,,,,,,,,87.5374773,88.0375165,88.0375165,88.0375165,,,space,1,0.4483126,,,,,,,,,,,,,,,,,,,,,,,,,,,,,,,,,,,,,,,,,,,,,,,,,,,,,,fulltrial,1,2022-10-08_15h13.00.390,N-back_test,2022.2.4,60.36318113
A,None,,,,,0,29,29,29,,,,,,,,,,,,,,,,,,,,,,,,,,,,,,,,,,88.5046697,89.0043467,89.0043467,89.0043467,89.7540437,90.0040617,None,1,,,,,,,,,,,,,,,,,,,,,,,,,,,,,,,,,,,,,,,,,,,,,,,,,,,,,,,fulltrial,1,2022-10-08_15h13.00.390,N-back_test,2022.2.4,60.36318113
B,None,,,,,0,30,30,30,,,,,,,,,,,,,,,,,,,,,,,,,,,,,,,,,,90.0040617,90.5042189,90.5042189,90.5042189,91.254418,91.5044285,None,1,,,,,,,,,,,,,,,,,,,,,,,,,,,,,,,,,,,,,,,,,,,,,,,,,,,,,,,fulltrial,1,2022-10-08_15h13.00.390,N-back_test,2022.2.4,60.36318113
T,None,,,,,0,31,31,31,,,,,,,,,,,,,,,,,,,,,,,,,,,,,,,,,,91.5044285,92.0042002,92.0042002,92.0042002,92.7540684,93.0042398,None,1,,,,,,,,,,,,,,,,,,,,,,,,,,,,,,,,,,,,,,,,,,,,,,,,,,,,,,,fulltrial,1,2022-10-08_15h13.00.390,N-back_test,2022.2.4,60.36318113
Y,None,,,,,0,32,32,32,,,,,,,,,,,,,,,,,,,,,,,,,,,,,,,,,,93.0042398,93.5042125,93.5042125,93.5042125,94.2538741,94.5041833,None,1,,,,,,,,,,,,,,,,,,,,,,,,,,,,,,,,,,,,,,,,,,,,,,,,,,,,,,,fulltrial,1,2022-10-08_15h13.00.390,N-back_test,2022.2.4,60.36318113
W,None,,,,,0,33,33,33,,,,,,,,,,,,,,,,,,,,,,,,,,,,,,,,,,94.5041833,95.0041919,95.0041919,95.0041919,95.7541209,96.0039871,None,1,,,,,,,,,,,,,,,,,,,,,,,,,,,,,,,,,,,,,,,,,,,,,,,,,,,,,,,fulltrial,1,2022-10-08_15h13.00.390,N-back_test,2022.2.4,60.36318113
X,None,,,,,0,34,34,34,,,,,,,,,,,,,,,,,,,,,,,,,,,,,,,,,,96.0039871,96.5041285,96.5041285,96.5041285,97.2541093,97.5039528,None,1,,,,,,,,,,,,,,,,,,,,,,,,,,,,,,,,,,,,,,,,,,,,,,,,,,,,,,,fulltrial,1,2022-10-08_15h13.00.390,N-back_test,2022.2.4,60.36318113
X,space,,,,,0,35,35,35,,,,,,,,,,,,,,,,,,,,,,,,,,,,,,,,,,97.5039528,98.0041866,98.0041866,98.0041866,,,space,1,0.5973928,,,,,,,,,,,,,,,,,,,,,,,,,,,,,,,,,,,,,,,,,,,,,,,,,,,,,,fulltrial,1,2022-10-08_15h13.00.390,N-back_test,2022.2.4,60.36318113
P,None,,,,,0,36,36,36,,,,,,,,,,,,,,,,,,,,,,,,,,,,,,,,,,98.6210396,99.1205182,99.1205182,99.1205182,99.8704405,100.1206961,None,1,,,,,,,,,,,,,,,,,,,,,,,,,,,,,,,,,,,,,,,,,,,,,,,,,,,,,,,fulltrial,1,2022-10-08_15h13.00.390,N-back_test,2022.2.4,60.36318113
F,None,,,,,0,37,37,37,,,,,,,,,,,,,,,,,,,,,,,,,,,,,,,,,,100.1206961,100.6045204,100.6045204,100.6209031,101.354023,101.6043134,None,1,,,,,,,,,,,,,,,,,,,,,,,,,,,,,,,,,,,,,,,,,,,,,,,,,,,,,,,fulltrial,1,2022-10-08_15h13.00.390,N-back_test,2022.2.4,60.36318113
W,None,,,,,0,38,38,38,,,,,,,,,,,,,,,,,,,,,,,,,,,,,,,,,,101.6208155,102.1211034,102.1211034,102.1211034,102.8705113,103.1207101,None,1,,,,,,,,,,,,,,,,,,,,,,,,,,,,,,,,,,,,,,,,,,,,,,,,,,,,,,,fulltrial,1,2022-10-08_15h13.00.390,N-back_test,2022.2.4,60.36318113
W,space,,,,,0,39,39,39,,,,,,,,,,,,,,,,,,,,,,,,,,,,,,,,,,103.1207101,103.6207179,103.6207179,103.6207179,104.3705186,104.6210296,None,0,,,,,,,,,,,,,,,,,,,,,,,,,,,,,,,,,,,,,,,,,,,,,,,,,,,,,,,fulltrial,1,2022-10-08_15h13.00.390,N-back_test,2022.2.4,60.36318113
K,None,,,,,0,40,40,40,,,,,,,,,,,,,,,,,,,,,,,,,,,,,,,,,,104.6210296,105.1204995,105.1204995,105.1204995,105.8705437,106.1206633,None,1,,,,,,,,,,,,,,,,,,,,,,,,,,,,,,,,,,,,,,,,,,,,,,,,,,,,,,,fulltrial,1,2022-10-08_15h13.00.390,N-back_test,2022.2.4,60.36318113
L,None,,,,,0,41,41,41,,,,,,,,,,,,,,,,,,,,,,,,,,,,,,,,,,106.1206633,106.6206696,106.6206696,106.6206696,107.3705685,107.620491,None,1,,,,,,,,,,,,,,,,,,,,,,,,,,,,,,,,,,,,,,,,,,,,,,,,,,,,,,,fulltrial,1,2022-10-08_15h13.00.390,N-back_test,2022.2.4,60.36318113
N,None,,,,,0,42,42,42,,,,,,,,,,,,,,,,,,,,,,,,,,,,,,,,,,107.620491,108.1206249,108.1206249,108.1206249,108.8705485,109.1205793,None,1,,,,,,,,,,,,,,,,,,,,,,,,,,,,,,,,,,,,,,,,,,,,,,,,,,,,,,,fulltrial,1,2022-10-08_15h13.00.390,N-back_test,2022.2.4,60.36318113
D,None,,,,,0,43,43,43,,,,,,,,,,,,,,,,,,,,,,,,,,,,,,,,,,109.1205793,109.6202802,109.6202802,109.6202802,110.3704772,110.6203869,None,1,,,,,,,,,,,,,,,,,,,,,,,,,,,,,,,,,,,,,,,,,,,,,,,,,,,,,,,fulltrial,1,2022-10-08_15h13.00.390,N-back_test,2022.2.4,60.36318113
Q,None,,,,,0,44,44,44,,,,,,,,,,,,,,,,,,,,,,,,,,,,,,,,,,110.6203869,111.1205553,111.1205553,111.1205553,111.8705035,112.120544,None,1,,,,,,,,,,,,,,,,,,,,,,,,,,,,,,,,,,,,,,,,,,,,,,,,,,,,,,,fulltrial,1,2022-10-08_15h13.00.390,N-back_test,2022.2.4,60.36318113
Z,None,,,,,0,45,45,45,,,,,,,,,,,,,,,,,,,,,,,,,,,,,,,,,,112.120544,112.6205027,112.6205027,112.6205027,113.3702194,113.6206301,None,1,,,,,,,,,,,,,,,,,,,,,,,,,,,,,,,,,,,,,,,,,,,,,,,,,,,,,,,fulltrial,1,2022-10-08_15h13.00.390,N-back_test,2022.2.4,60.36318113
Z,space,,,,,0,46,46,46,,,,,,,,,,,,,,,,,,,,,,,,,,,,,,,,,,113.6206301,114.1209321,114.1209321,114.1209321,,,space,1,0.5434706,,,,,,,,,,,,,,,,,,,,,,,,,,,,,,,,,,,,,,,,,,,,,,,,,,,,,,fulltrial,1,2022-10-08_15h13.00.390,N-back_test,2022.2.4,60.36318113
F,None,,,,,0,47,47,47,,,,,,,,,,,,,,,,,,,,,,,,,,,,,,,,,,114.6873041,115.1871351,115.1871351,115.1871351,115.9369444,116.1874409,None,1,,,,,,,,,,,,,,,,,,,,,,,,,,,,,,,,,,,,,,,,,,,,,,,,,,,,,,,fulltrial,1,2022-10-08_15h13.00.390,N-back_test,2022.2.4,60.36318113
G,None,,,,,0,48,48,48,,,,,,,,,,,,,,,,,,,,,,,,,,,,,,,,,,116.1874409,116.6871738,116.6871738,116.6871738,117.4370318,117.6876833,None,1,,,,,,,,,,,,,,,,,,,,,,,,,,,,,,,,,,,,,,,,,,,,,,,,,,,,,,,fulltrial,1,2022-10-08_15h13.00.390,N-back_test,2022.2.4,60.36318113
G,space,,,,,0,49,49,49,,,,,,,,,,,,,,,,,,,,,,,,,,,,,,,,,,117.6876833,118.1871263,118.1871263,118.1871263,,,space,1,0.5777678,,,,,,,,,,,,,,,,,,,,,,,,,,,,,,,,,,,,,,,,,,,,,,,,,,,,,,fulltrial,1,2022-10-08_15h13.00.390,N-back_test,2022.2.4,60.36318113
,,,,,,,,,,,,,,,,,,,,,,,,,,,,,,,,,,,,,,,,,,,,,,,,,,,,118.7873546,118.7873546,space,44.1404237,,,,,,,,,,,,,,,,,,,,,,,,,,,,,,,,,,,,,,,,,,,,,,,,,,fulltrial,1,2022-10-08_15h13.00.390,N-back_test,2022.2.4,60.36318113
A,None,,,,,,,,,0,0,0,0,,,,,,,,,,,,,,,,,,,,,,,,,,,,,,,,,,,,,,,,,,,162.9533109,163.4361072,163.4361072,163.4529773,164.186368,164.4359832,None,1,,,,,,,,,,,,,,,,,,,,,,,,,,,,,,,,,,,,,,,,,,fulltrial,1,2022-10-08_15h13.00.390,N-back_test,2022.2.4,60.36318113
H,None,,,,,,,,,0,1,1,1,,,,,,,,,,,,,,,,,,,,,,,,,,,,,,,,,,,,,,,,,,,164.4359832,164.9360225,164.9360225,164.9360225,165.6862941,165.9359388,None,1,,,,,,,,,,,,,,,,,,,,,,,,,,,,,,,,,,,,,,,,,,fulltrial,1,2022-10-08_15h13.00.390,N-back_test,2022.2.4,60.36318113
C,None,,,,,,,,,0,2,2,2,,,,,,,,,,,,,,,,,,,,,,,,,,,,,,,,,,,,,,,,,,,165.9359388,166.4529146,166.4529146,166.4361846,167.2027627,167.4527548,None,1,,,,,,,,,,,,,,,,,,,,,,,,,,,,,,,,,,,,,,,,,,fulltrial,1,2022-10-08_15h13.00.390,N-back_test,2022.2.4,60.36318113
H,space,,,,,,,,,0,3,3,3,,,,,,,,,,,,,,,,,,,,,,,,,,,,,,,,,,,,,,,,,,,167.4527548,167.9526435,167.9526435,167.9526435,,,space,1,0.6863988,,,,,,,,,,,,,,,,,,,,,,,,,,,,,,,,,,,,,,,,,fulltrial,1,2022-10-08_15h13.00.390,N-back_test,2022.2.4,60.36318113
F,None,,,,,,,,,0,4,4,4,,,,,,,,,,,,,,,,,,,,,,,,,,,,,,,,,,,,,,,,,,,168.6692449,169.1692518,169.1692518,169.1692518,169.9194163,170.1695033,None,1,,,,,,,,,,,,,,,,,,,,,,,,,,,,,,,,,,,,,,,,,,fulltrial,1,2022-10-08_15h13.00.390,N-back_test,2022.2.4,60.36318113
A,None,,,,,,,,,0,5,5,5,,,,,,,,,,,,,,,,,,,,,,,,,,,,,,,,,,,,,,,,,,,170.1695033,170.669286,170.669286,170.669286,171.4192315,171.6693683,None,1,,,,,,,,,,,,,,,,,,,,,,,,,,,,,,,,,,,,,,,,,,fulltrial,1,2022-10-08_15h13.00.390,N-back_test,2022.2.4,60.36318113
F,space,,,,,,,,,0,6,6,6,,,,,,,,,,,,,,,,,,,,,,,,,,,,,,,,,,,,,,,,,,,171.6693683,172.1691979,172.1691979,172.1691979,,,space,1,0.3803138,,,,,,,,,,,,,,,,,,,,,,,,,,,,,,,,,,,,,,,,,fulltrial,1,2022-10-08_15h13.00.390,N-back_test,2022.2.4,60.36318113
B,None,,,,,,,,,0,7,7,7,,,,,,,,,,,,,,,,,,,,,,,,,,,,,,,,,,,,,,,,,,,172.5691352,173.069687,173.069687,173.069687,173.8194651,174.0697266,None,1,,,,,,,,,,,,,,,,,,,,,,,,,,,,,,,,,,,,,,,,,,fulltrial,1,2022-10-08_15h13.00.390,N-back_test,2022.2.4,60.36318113
A,None,,,,,,,,,0,8,8,8,,,,,,,,,,,,,,,,,,,,,,,,,,,,,,,,,,,,,,,,,,,174.0697266,174.5690577,174.5690577,174.5690577,175.3194486,175.5691403,None,1,,,,,,,,,,,,,,,,,,,,,,,,,,,,,,,,,,,,,,,,,,fulltrial,1,2022-10-08_15h13.00.390,N-back_test,2022.2.4,60.36318113
B,space,,,,,,,,,0,9,9,9,,,,,,,,,,,,,,,,,,,,,,,,,,,,,,,,,,,,,,,,,,,175.5691403,176.0690036,176.0690036,176.0690036,,,space,1,0.3856015,,,,,,,,,,,,,,,,,,,,,,,,,,,,,,,,,,,,,,,,,fulltrial,1,2022-10-08_15h13.00.390,N-back_test,2022.2.4,60.36318113
,,,,,,,,,,,,,,,,,,,,,,,,,,,,,,,,,,,,,,,,,,,,,,,,,,,,,,,,,,,,,,,,,176.4864688,176.4864688,space,171.0703018,,,,,,,,,,,,,,,,,,,,,,,,,,,,,,,,,,,,,fulltrial,1,2022-10-08_15h13.00.390,N-back_test,2022.2.4,60.36318113
C,None,,,,,,,,,,,,,0,0,0,0,,,,,,,,,,,,,,,,,,,,,,,,,,,,,,,,,,,,,,,,,,,,,,,,,,,,347.5834784,348.0828992,348.0828992,348.0828992,348.8331691,349.0829738,None,1,,,,,,,,,,,,,,,,,,,,,,,,,,,,,fulltrial,1,2022-10-08_15h13.00.390,N-back_test,2022.2.4,60.36318113
J,None,,,,,,,,,,,,,0,1,1,1,,,,,,,,,,,,,,,,,,,,,,,,,,,,,,,,,,,,,,,,,,,,,,,,,,,,349.0829738,349.5829265,349.5829265,349.5829265,350.3329968,350.5834296,None,1,,,,,,,,,,,,,,,,,,,,,,,,,,,,,fulltrial,1,2022-10-08_15h13.00.390,N-back_test,2022.2.4,60.36318113
C,space,,,,,,,,,,,,,0,2,2,2,,,,,,,,,,,,,,,,,,,,,,,,,,,,,,,,,,,,,,,,,,,,,,,,,,,,350.5834296,351.0833216,351.0833216,351.0833216,,,space,1,0.3496908,,,,,,,,,,,,,,,,,,,,,,,,,,,,fulltrial,1,2022-10-08_15h13.00.390,N-back_test,2022.2.4,60.36318113
A,None,,,,,,,,,,,,,0,3,3,3,,,,,,,,,,,,,,,,,,,,,,,,,,,,,,,,,,,,,,,,,,,,,,,,,,,,351.4496807,351.949673,351.949673,351.949673,352.7002815,352.949654,None,1,,,,,,,,,,,,,,,,,,,,,,,,,,,,,fulltrial,1,2022-10-08_15h13.00.390,N-back_test,2022.2.4,60.36318113
I,None,,,,,,,,,,,,,0,4,4,4,,,,,,,,,,,,,,,,,,,,,,,,,,,,,,,,,,,,,,,,,,,,,,,,,,,,352.949654,353.4493862,353.4493862,353.4493862,354.1996022,354.4495168,None,1,,,,,,,,,,,,,,,,,,,,,,,,,,,,,fulltrial,1,2022-10-08_15h13.00.390,N-back_test,2022.2.4,60.36318113
A,space,,,,,,,,,,,,,0,5,5,5,,,,,,,,,,,,,,,,,,,,,,,,,,,,,,,,,,,,,,,,,,,,,,,,,,,,354.4495168,354.9496163,354.9496163,354.9496163,,,space,1,0.4499085,,,,,,,,,,,,,,,,,,,,,,,,,,,,fulltrial,1,2022-10-08_15h13.00.390,N-back_test,2022.2.4,60.36318113
G,None,,,,,,,,,,,,,0,6,6,6,,,,,,,,,,,,,,,,,,,,,,,,,,,,,,,,,,,,,,,,,,,,,,,,,,,,355.416829,355.9163917,355.9163917,355.9163917,356.66628,356.916285,None,1,,,,,,,,,,,,,,,,,,,,,,,,,,,,,fulltrial,1,2022-10-08_15h13.00.390,N-back_test,2022.2.4,60.36318113
A,space,,,,,,,,,,,,,0,7,7,7,,,,,,,,,,,,,,,,,,,,,,,,,,,,,,,,,,,,,,,,,,,,,,,,,,,,356.916285,357.4163169,357.4163169,357.4163169,358.1660174,358.4161248,None,0,,,,,,,,,,,,,,,,,,,,,,,,,,,,,fulltrial,1,2022-10-08_15h13.00.390,N-back_test,2022.2.4,60.36318113
H,None,,,,,,,,,,,,,0,8,8,8,,,,,,,,,,,,,,,,,,,,,,,,,,,,,,,,,,,,,,,,,,,,,,,,,,,,358.4161248,358.9163563,358.9163563,358.9163563,359.6661631,359.9163211,None,1,,,,,,,,,,,,,,,,,,,,,,,,,,,,,fulltrial,1,2022-10-08_15h13.00.390,N-back_test,2022.2.4,60.36318113
C,None,,,,,,,,,,,,,0,9,9,9,,,,,,,,,,,,,,,,,,,,,,,,,,,,,,,,,,,,,,,,,,,,,,,,,,,,359.9163211,360.4163304,360.4163304,360.4163304,361.1659429,361.4161708,None,1,,,,,,,,,,,,,,,,,,,,,,,,,,,,,fulltrial,1,2022-10-08_15h13.00.390,N-back_test,2022.2.4,60.36318113
H,space,,,,,,,,,,,,,0,10,10,10,,,,,,,,,,,,,,,,,,,,,,,,,,,,,,,,,,,,,,,,,,,,,,,,,,,,361.4161708,361.9162793,361.9162793,361.9162793,362.665991,362.9160962,None,0,,,,,,,,,,,,,,,,,,,,,,,,,,,,,fulltrial,1,2022-10-08_15h13.00.390,N-back_test,2022.2.4,60.36318113
F,None,,,,,,,,,,,,,0,11,11,11,,,,,,,,,,,,,,,,,,,,,,,,,,,,,,,,,,,,,,,,,,,,,,,,,,,,362.9160962,363.4161947,363.4161947,363.4161947,364.1660387,364.4162488,None,1,,,,,,,,,,,,,,,,,,,,,,,,,,,,,fulltrial,1,2022-10-08_15h13.00.390,N-back_test,2022.2.4,60.36318113
A,None,,,,,,,,,,,,,0,12,12,12,,,,,,,,,,,,,,,,,,,,,,,,,,,,,,,,,,,,,,,,,,,,,,,,,,,,364.4162488,364.9162432,364.9162432,364.9162432,365.665988,365.9161013,None,1,,,,,,,,,,,,,,,,,,,,,,,,,,,,,fulltrial,1,2022-10-08_15h13.00.390,N-back_test,2022.2.4,60.36318113
F,space,,,,,,,,,,,,,0,13,13,13,,,,,,,,,,,,,,,,,,,,,,,,,,,,,,,,,,,,,,,,,,,,,,,,,,,,365.9161013,366.4160942,366.4160942,366.4160942,,,space,1,0.5178437,,,,,,,,,,,,,,,,,,,,,,,,,,,,fulltrial,1,2022-10-08_15h13.00.390,N-back_test,2022.2.4,60.36318113
B,None,,,,,,,,,,,,,0,14,14,14,,,,,,,,,,,,,,,,,,,,,,,,,,,,,,,,,,,,,,,,,,,,,,,,,,,,366.9658684,367.4660078,367.4660078,367.4660078,368.2160791,368.4660673,None,1,,,,,,,,,,,,,,,,,,,,,,,,,,,,,fulltrial,1,2022-10-08_15h13.00.390,N-back_test,2022.2.4,60.36318113
A,None,,,,,,,,,,,,,0,15,15,15,,,,,,,,,,,,,,,,,,,,,,,,,,,,,,,,,,,,,,,,,,,,,,,,,,,,368.4660673,368.9659261,368.9659261,368.9659261,369.7160941,369.9660322,None,1,,,,,,,,,,,,,,,,,,,,,,,,,,,,,fulltrial,1,2022-10-08_15h13.00.390,N-back_test,2022.2.4,60.36318113
B,space,,,,,,,,,,,,,0,16,16,16,,,,,,,,,,,,,,,,,,,,,,,,,,,,,,,,,,,,,,,,,,,,,,,,,,,,369.9660322,370.465848,370.465848,370.465848,,,space,1,0.3728079,,,,,,,,,,,,,,,,,,,,,,,,,,,,fulltrial,1,2022-10-08_15h13.00.390,N-back_test,2022.2.4,60.36318113
H,None,,,,,,,,,,,,,0,17,17,17,,,,,,,,,,,,,,,,,,,,,,,,,,,,,,,,,,,,,,,,,,,,,,,,,,,,370.865805,371.3658918,371.3658918,371.3658918,372.1164687,372.3660439,None,1,,,,,,,,,,,,,,,,,,,,,,,,,,,,,fulltrial,1,2022-10-08_15h13.00.390,N-back_test,2022.2.4,60.36318113
D,None,,,,,,,,,,,,,0,18,18,18,,,,,,,,,,,,,,,,,,,,,,,,,,,,,,,,,,,,,,,,,,,,,,,,,,,,372.3660439,372.8657678,372.8657678,372.8657678,373.6165186,373.865861,None,1,,,,,,,,,,,,,,,,,,,,,,,,,,,,,fulltrial,1,2022-10-08_15h13.00.390,N-back_test,2022.2.4,60.36318113
J,None,,,,,,,,,,,,,0,19,19,19,,,,,,,,,,,,,,,,,,,,,,,,,,,,,,,,,,,,,,,,,,,,,,,,,,,,373.865861,374.3657452,374.3657452,374.3657452,375.1159965,375.3657165,None,1,,,,,,,,,,,,,,,,,,,,,,,,,,,,,fulltrial,1,2022-10-08_15h13.00.390,N-back_test,2022.2.4,60.36318113
F,None,,,,,,,,,,,,,0,20,20,20,,,,,,,,,,,,,,,,,,,,,,,,,,,,,,,,,,,,,,,,,,,,,,,,,,,,375.3657165,375.8657186,375.8657186,375.8657186,376.6158872,376.8656948,None,1,,,,,,,,,,,,,,,,,,,,,,,,,,,,,fulltrial,1,2022-10-08_15h13.00.390,N-back_test,2022.2.4,60.36318113
J,space,,,,,,,,,,,,,0,21,21,21,,,,,,,,,,,,,,,,,,,,,,,,,,,,,,,,,,,,,,,,,,,,,,,,,,,,376.8656948,377.3659175,377.3659175,377.3659175,,,space,1,0.6208149,,,,,,,,,,,,,,,,,,,,,,,,,,,,fulltrial,1,2022-10-08_15h13.00.390,N-back_test,2022.2.4,60.36318113
C,None,,,,,,,,,,,,,0,22,22,22,,,,,,,,,,,,,,,,,,,,,,,,,,,,,,,,,,,,,,,,,,,,,,,,,,,,378.0164018,378.5160042,378.5160042,378.5160042,379.2657177,379.5159397,None,1,,,,,,,,,,,,,,,,,,,,,,,,,,,,,fulltrial,1,2022-10-08_15h13.00.390,N-back_test,2022.2.4,60.36318113
D,None,,,,,,,,,,,,,0,23,23,23,,,,,,,,,,,,,,,,,,,,,,,,,,,,,,,,,,,,,,,,,,,,,,,,,,,,379.5159397,380.0157508,380.0157508,380.0157508,380.7658396,381.0159907,None,1,,,,,,,,,,,,,,,,,,,,,,,,,,,,,fulltrial,1,2022-10-08_15h13.00.390,N-back_test,2022.2.4,60.36318113
H,None,,,,,,,,,,,,,0,24,24,24,,,,,,,,,,,,,,,,,,,,,,,,,,,,,,,,,,,,,,,,,,,,,,,,,,,,381.0159907,381.5157609,381.5157609,381.5157609,382.2658693,382.5157345,None,1,,,,,,,,,,,,,,,,,,,,,,,,,,,,,fulltrial,1,2022-10-08_15h13.00.390,N-back_test,2022.2.4,60.36318113
D,space,,,,,,,,,,,,,0,25,25,25,,,,,,,,,,,,,,,,,,,,,,,,,,,,,,,,,,,,,,,,,,,,,,,,,,,,382.5157345,383.0157235,383.0157235,383.0157235,,,space,1,0.400302,,,,,,,,,,,,,,,,,,,,,,,,,,,,fulltrial,1,2022-10-08_15h13.00.390,N-back_test,2022.2.4,60.36318113
A,None,,,,,,,,,,,,,0,26,26,26,,,,,,,,,,,,,,,,,,,,,,,,,,,,,,,,,,,,,,,,,,,,,,,,,,,,383.4325099,383.9323414,383.9323414,383.9323414,384.6823729,384.9324796,None,1,,,,,,,,,,,,,,,,,,,,,,,,,,,,,fulltrial,1,2022-10-08_15h13.00.390,N-back_test,2022.2.4,60.36318113
B,None,,,,,,,,,,,,,0,27,27,27,,,,,,,,,,,,,,,,,,,,,,,,,,,,,,,,,,,,,,,,,,,,,,,,,,,,384.9324796,385.4325272,385.4325272,385.4325272,386.1824056,386.4325279,None,1,,,,,,,,,,,,,,,,,,,,,,,,,,,,,fulltrial,1,2022-10-08_15h13.00.390,N-back_test,2022.2.4,60.36318113
E,None,,,,,,,,,,,,,0,28,28,28,,,,,,,,,,,,,,,,,,,,,,,,,,,,,,,,,,,,,,,,,,,,,,,,,,,,386.4325279,386.9324842,386.9324842,386.9324842,387.682394,387.9324281,None,1,,,,,,,,,,,,,,,,,,,,,,,,,,,,,fulltrial,1,2022-10-08_15h13.00.390,N-back_test,2022.2.4,60.36318113
I,None,,,,,,,,,,,,,0,29,29,29,,,,,,,,,,,,,,,,,,,,,,,,,,,,,,,,,,,,,,,,,,,,,,,,,,,,387.9324281,388.4324073,388.4324073,388.4324073,389.1823267,389.4322211,None,1,,,,,,,,,,,,,,,,,,,,,,,,,,,,,fulltrial,1,2022-10-08_15h13.00.390,N-back_test,2022.2.4,60.36318113
F,None,,,,,,,,,,,,,0,30,30,30,,,,,,,,,,,,,,,,,,,,,,,,,,,,,,,,,,,,,,,,,,,,,,,,,,,,389.4322211,389.9322444,389.9322444,389.9322444,,,space,0,0.7075997,,,,,,,,,,,,,,,,,,,,,,,,,,,,fulltrial,1,2022-10-08_15h13.00.390,N-back_test,2022.2.4,60.36318113
I,space,,,,,,,,,,,,,0,31,31,31,,,,,,,,,,,,,,,,,,,,,,,,,,,,,,,,,,,,,,,,,,,,,,,,,,,,390.6657619,391.165687,391.165687,391.165687,391.9158054,392.1657242,None,0,,,,,,,,,,,,,,,,,,,,,,,,,,,,,fulltrial,1,2022-10-08_15h13.00.390,N-back_test,2022.2.4,60.36318113
B,None,,,,,,,,,,,,,0,32,32,32,,,,,,,,,,,,,,,,,,,,,,,,,,,,,,,,,,,,,,,,,,,,,,,,,,,,392.1657242,392.6655528,392.6655528,392.6655528,393.4157433,393.6655967,None,1,,,,,,,,,,,,,,,,,,,,,,,,,,,,,fulltrial,1,2022-10-08_15h13.00.390,N-back_test,2022.2.4,60.36318113
I,space,,,,,,,,,,,,,0,33,33,33,,,,,,,,,,,,,,,,,,,,,,,,,,,,,,,,,,,,,,,,,,,,,,,,,,,,393.6655967,394.1655674,394.1655674,394.1655674,394.9155518,395.165723,None,0,,,,,,,,,,,,,,,,,,,,,,,,,,,,,fulltrial,1,2022-10-08_15h13.00.390,N-back_test,2022.2.4,60.36318113
H,None,,,,,,,,,,,,,0,34,34,34,,,,,,,,,,,,,,,,,,,,,,,,,,,,,,,,,,,,,,,,,,,,,,,,,,,,395.165723,395.6657149,395.6657149,395.6657149,396.4155073,396.6656063,None,1,,,,,,,,,,,,,,,,,,,,,,,,,,,,,fulltrial,1,2022-10-08_15h13.00.390,N-back_test,2022.2.4,60.36318113
B,None,,,,,,,,,,,,,0,35,35,35,,,,,,,,,,,,,,,,,,,,,,,,,,,,,,,,,,,,,,,,,,,,,,,,,,,,396.6656063,397.1653978,397.1653978,397.1653978,,,space,0,0.4518955,,,,,,,,,,,,,,,,,,,,,,,,,,,,fulltrial,1,2022-10-08_15h13.00.390,N-back_test,2022.2.4,60.36318113
C,None,,,,,,,,,,,,,0,36,36,36,,,,,,,,,,,,,,,,,,,,,,,,,,,,,,,,,,,,,,,,,,,,,,,,,,,,397.6486476,398.1487477,398.1487477,398.1487477,398.8991347,399.1488708,None,1,,,,,,,,,,,,,,,,,,,,,,,,,,,,,fulltrial,1,2022-10-08_15h13.00.390,N-back_test,2022.2.4,60.36318113
B,space,,,,,,,,,,,,,0,37,37,37,,,,,,,,,,,,,,,,,,,,,,,,,,,,,,,,,,,,,,,,,,,,,,,,,,,,399.1488708,399.6487962,399.6487962,399.6487962,400.3987587,400.6487384,None,0,,,,,,,,,,,,,,,,,,,,,,,,,,,,,fulltrial,1,2022-10-08_15h13.00.390,N-back_test,2022.2.4,60.36318113
F,None,,,,,,,,,,,,,0,38,38,38,,,,,,,,,,,,,,,,,,,,,,,,,,,,,,,,,,,,,,,,,,,,,,,,,,,,400.6487384,401.1488389,401.1488389,401.1488389,401.8989584,402.1485844,None,1,,,,,,,,,,,,,,,,,,,,,,,,,,,,,fulltrial,1,2022-10-08_15h13.00.390,N-back_test,2022.2.4,60.36318113
J,None,,,,,,,,,,,,,0,39,39,39,,,,,,,,,,,,,,,,,,,,,,,,,,,,,,,,,,,,,,,,,,,,,,,,,,,,402.1485844,402.6486448,402.6325237,402.6325237,403.3820779,403.6322694,None,1,,,,,,,,,,,,,,,,,,,,,,,,,,,,,fulltrial,1,2022-10-08_15h13.00.390,N-back_test,2022.2.4,60.36318113
F,space,,,,,,,,,,,,,0,40,40,40,,,,,,,,,,,,,,,,,,,,,,,,,,,,,,,,,,,,,,,,,,,,,,,,,,,,403.6487897,404.1490301,404.1326093,404.1326093,,,space,1,0.6178894,,,,,,,,,,,,,,,,,,,,,,,,,,,,fulltrial,1,2022-10-08_15h13.00.390,N-back_test,2022.2.4,60.36318113
B,None,,,,,,,,,,,,,0,41,41,41,,,,,,,,,,,,,,,,,,,,,,,,,,,,,,,,,,,,,,,,,,,,,,,,,,,,404.7819274,405.2818616,405.2818616,405.2818616,406.0320627,406.2818154,None,1,,,,,,,,,,,,,,,,,,,,,,,,,,,,,fulltrial,1,2022-10-08_15h13.00.390,N-back_test,2022.2.4,60.36318113
B,None,,,,,,,,,,,,,0,42,42,42,,,,,,,,,,,,,,,,,,,,,,,,,,,,,,,,,,,,,,,,,,,,,,,,,,,,406.2818154,406.781901,406.781901,406.781901,,,space,0,0.6114577,,,,,,,,,,,,,,,,,,,,,,,,,,,,fulltrial,1,2022-10-08_15h13.00.390,N-back_test,2022.2.4,60.36318113
B,space,,,,,,,,,,,,,0,43,43,43,,,,,,,,,,,,,,,,,,,,,,,,,,,,,,,,,,,,,,,,,,,,,,,,,,,,407.4154761,407.9154957,407.9154957,407.9154957,408.6654678,,space,1,0.7465318,,,,,,,,,,,,,,,,,,,,,,,,,,,,fulltrial,1,2022-10-08_15h13.00.390,N-back_test,2022.2.4,60.36318113
G,None,,,,,,,,,,,,,0,44,44,44,,,,,,,,,,,,,,,,,,,,,,,,,,,,,,,,,,,,,,,,,,,,,,,,,,,,408.6818896,409.1824678,409.1824678,409.1824678,409.9320214,410.1817819,None,1,,,,,,,,,,,,,,,,,,,,,,,,,,,,,fulltrial,1,2022-10-08_15h13.00.390,N-back_test,2022.2.4,60.36318113
B,space,,,,,,,,,,,,,0,45,45,45,,,,,,,,,,,,,,,,,,,,,,,,,,,,,,,,,,,,,,,,,,,,,,,,,,,,410.1817819,410.6820186,410.6820186,410.6820186,411.4318475,411.6819998,None,0,,,,,,,,,,,,,,,,,,,,,,,,,,,,,fulltrial,1,2022-10-08_15h13.00.390,N-back_test,2022.2.4,60.36318113
H,None,,,,,,,,,,,,,0,46,46,46,,,,,,,,,,,,,,,,,,,,,,,,,,,,,,,,,,,,,,,,,,,,,,,,,,,,411.6819998,412.1817613,412.1817613,412.1817613,412.9322462,413.1819801,None,1,,,,,,,,,,,,,,,,,,,,,,,,,,,,,fulltrial,1,2022-10-08_15h13.00.390,N-back_test,2022.2.4,60.36318113
G,None,,,,,,,,,,,,,0,47,47,47,,,,,,,,,,,,,,,,,,,,,,,,,,,,,,,,,,,,,,,,,,,,,,,,,,,,413.1819801,413.6819234,413.6819234,413.6819234,414.4320536,,space,0,0.822878,,,,,,,,,,,,,,,,,,,,,,,,,,,,fulltrial,1,2022-10-08_15h13.00.390,N-back_test,2022.2.4,60.36318113
H,space,,,,,,,,,,,,,0,48,48,48,,,,,,,,,,,,,,,,,,,,,,,,,,,,,,,,,,,,,,,,,,,,,,,,,,,,414.5318102,415.0319616,415.0319616,415.0319616,415.781685,416.0320073,None,0,,,,,,,,,,,,,,,,,,,,,,,,,,,,,fulltrial,1,2022-10-08_15h13.00.390,N-back_test,2022.2.4,60.36318113
A,None,,,,,,,,,,,,,0,49,49,49,,,,,,,,,,,,,,,,,,,,,,,,,,,,,,,,,,,,,,,,,,,,,,,,,,,,416.0320073,416.5318981,416.5153865,416.5153865,417.2652773,417.5153744,None,1,,,,,,,,,,,,,,,,,,,,,,,,,,,,,fulltrial,1,2022-10-08_15h13.00.390,N-back_test,2022.2.4,60.36318113
,,,,,,,,,,,,,,,,,,,,,,,,,,,,,,,,,,,,,,,,,,,,,,,,,,,,,,,,,,,,,,,,,,,,,,,,,,,,,,417.5153744,417.5153744,space,24.7468106,,,,,,,,,,,,,,,,,,,,,,,,fulltrial,1,2022-10-08_15h13.00.390,N-back_test,2022.2.4,60.36318113
E,None,,,,,,,,,,,,,,,,,0,0,0,0,,,,,,,,,,,,,,,,,,,,,,,,,,,,,,,,,,,,,,,,,,,,,,,,,,,,,,,,,,,,,442.2816296,442.7812395,442.7812395,442.7812395,443.5313246,443.7814969,None,,,,,,,,,,,,,,,,,fulltrial,1,2022-10-08_15h13.00.390,N-back_test,2022.2.4,60.36318113
A,None,,,,,,,,,,,,,,,,,0,1,1,1,,,,,,,,,,,,,,,,,,,,,,,,,,,,,,,,,,,,,,,,,,,,,,,,,,,,,,,,,,,,,443.7814969,444.2813652,444.2813652,444.2813652,445.0313183,445.2811774,None,,,,,,,,,,,,,,,,,fulltrial,1,2022-10-08_15h13.00.390,N-back_test,2022.2.4,60.36318113
H,None,,,,,,,,,,,,,,,,,0,2,2,2,,,,,,,,,,,,,,,,,,,,,,,,,,,,,,,,,,,,,,,,,,,,,,,,,,,,,,,,,,,,,445.2811774,445.7812656,445.7812656,445.7812656,446.5315104,446.7814353,None,,,,,,,,,,,,,,,,,fulltrial,1,2022-10-08_15h13.00.390,N-back_test,2022.2.4,60.36318113
B,None,,,,,,,,,,,,,,,,,0,3,3,3,,,,,,,,,,,,,,,,,,,,,,,,,,,,,,,,,,,,,,,,,,,,,,,,,,,,,,,,,,,,,446.7814353,447.2812111,447.2812111,447.2812111,448.0314277,448.2815772,None,,,,,,,,,,,,,,,,,fulltrial,1,2022-10-08_15h13.00.390,N-back_test,2022.2.4,60.36318113
A,space,,,,,,,,,,,,,,,,,0,4,4,4,,,,,,,,,,,,,,,,,,,,,,,,,,,,,,,,,,,,,,,,,,,,,,,,,,,,,,,,,,,,,448.2815772,448.7814214,448.7814214,448.7814214,,,space,0.5996075,,,,,,,,,,,,,,,,fulltrial,1,2022-10-08_15h13.00.390,N-back_test,2022.2.4,60.36318113
F,None,,,,,,,,,,,,,,,,,0,5,5,5,,,,,,,,,,,,,,,,,,,,,,,,,,,,,,,,,,,,,,,,,,,,,,,,,,,,,,,,,,,,,449.39847,449.8982345,449.8982345,449.8982345,450.6479933,450.8984784,None,,,,,,,,,,,,,,,,,fulltrial,1,2022-10-08_15h13.00.390,N-back_test,2022.2.4,60.36318113
C,None,,,,,,,,,,,,,,,,,0,6,6,6,,,,,,,,,,,,,,,,,,,,,,,,,,,,,,,,,,,,,,,,,,,,,,,,,,,,,,,,,,,,,450.8984784,451.3983643,451.3983643,451.3983643,452.1479562,452.3978517,None,,,,,,,,,,,,,,,,,fulltrial,1,2022-10-08_15h13.00.390,N-back_test,2022.2.4,60.36318113
E,None,,,,,,,,,,,,,,,,,0,7,7,7,,,,,,,,,,,,,,,,,,,,,,,,,,,,,,,,,,,,,,,,,,,,,,,,,,,,,,,,,,,,,452.3978517,452.8992672,452.8992672,452.8992672,453.647845,453.8978885,None,,,,,,,,,,,,,,,,,fulltrial,1,2022-10-08_15h13.00.390,N-back_test,2022.2.4,60.36318113
D,None,,,,,,,,,,,,,,,,,0,8,8,8,,,,,,,,,,,,,,,,,,,,,,,,,,,,,,,,,,,,,,,,,,,,,,,,,,,,,,,,,,,,,453.8978885,454.3979513,454.3979513,454.3979513,455.147667,455.3981644,None,,,,,,,,,,,,,,,,,fulltrial,1,2022-10-08_15h13.00.390,N-back_test,2022.2.4,60.36318113
C,space,,,,,,,,,,,,,,,,,0,9,9,9,,,,,,,,,,,,,,,,,,,,,,,,,,,,,,,,,,,,,,,,,,,,,,,,,,,,,,,,,,,,,455.3981644,455.8992003,455.8992003,455.8992003,,,space,0.6357479,,,,,,,,,,,,,,,,fulltrial,1,2022-10-08_15h13.00.390,N-back_test,2022.2.4,60.36318113
,,,,,,,,,,,,,,,,,,,,,,,,,,,,,,,,,,,,,,,,,,,,,,,,,,,,,,,,,,,,,,,,,,,,,,,,,,,,,,,,,,,,,,,,,,456.5645431,456.5645431,space,11.6554197,,,,,,,,,,,,fulltrial,1,2022-10-08_15h13.00.390,N-back_test,2022.2.4,60.36318113
A,None,,,,,,,,,,,,,,,,,,,,,0,0,0,0,,,,,,,,,,,,,,,,,,,,,,,,,,,,,,,,,,,,,,,,,,,,,,,,,,,,,,,,,,,,,,,,,,,,,468.2476547,468.7474276,468.7474276,468.7474276,469.4978513,469.747661,None,1,,,,fulltrial,1,2022-10-08_15h13.00.390,N-back_test,2022.2.4,60.36318113
C,None,,,,,,,,,,,,,,,,,,,,,0,1,1,1,,,,,,,,,,,,,,,,,,,,,,,,,,,,,,,,,,,,,,,,,,,,,,,,,,,,,,,,,,,,,,,,,,,,,469.747661,470.2474952,470.2474952,470.2474952,470.9976594,471.2473732,None,1,,,,fulltrial,1,2022-10-08_15h13.00.390,N-back_test,2022.2.4,60.36318113
G,None,,,,,,,,,,,,,,,,,,,,,0,2,2,2,,,,,,,,,,,,,,,,,,,,,,,,,,,,,,,,,,,,,,,,,,,,,,,,,,,,,,,,,,,,,,,,,,,,,471.2473732,471.7477375,471.7477375,471.7477375,472.4985989,472.7476148,None,1,,,,fulltrial,1,2022-10-08_15h13.00.390,N-back_test,2022.2.4,60.36318113
A,space,,,,,,,,,,,,,,,,,,,,,0,3,3,3,,,,,,,,,,,,,,,,,,,,,,,,,,,,,,,,,,,,,,,,,,,,,,,,,,,,,,,,,,,,,,,,,,,,,472.7476148,473.2476383,473.2476383,473.2476383,,,space,1,0.3187518,,,fulltrial,1,2022-10-08_15h13.00.390,N-back_test,2022.2.4,60.36318113
B,None,,,,,,,,,,,,,,,,,,,,,0,4,4,4,,,,,,,,,,,,,,,,,,,,,,,,,,,,,,,,,,,,,,,,,,,,,,,,,,,,,,,,,,,,,,,,,,,,,473.5981681,474.0978329,474.0809187,474.0809187,474.8307755,475.0807876,None,1,,,,fulltrial,1,2022-10-08_15h13.00.390,N-back_test,2022.2.4,60.36318113
H,None,,,,,,,,,,,,,,,,,,,,,0,5,5,5,,,,,,,,,,,,,,,,,,,,,,,,,,,,,,,,,,,,,,,,,,,,,,,,,,,,,,,,,,,,,,,,,,,,,475.0985144,475.5979109,475.5979109,475.5979109,476.3473969,476.5978261,None,1,,,,fulltrial,1,2022-10-08_15h13.00.390,N-back_test,2022.2.4,60.36318113
A,None,,,,,,,,,,,,,,,,,,,,,0,6,6,6,,,,,,,,,,,,,,,,,,,,,,,,,,,,,,,,,,,,,,,,,,,,,,,,,,,,,,,,,,,,,,,,,,,,,476.5978261,477.0979368,477.0979368,477.0979368,477.847547,478.0975642,None,1,,,,fulltrial,1,2022-10-08_15h13.00.390,N-back_test,2022.2.4,60.36318113
I,None,,,,,,,,,,,,,,,,,,,,,0,7,7,7,,,,,,,,,,,,,,,,,,,,,,,,,,,,,,,,,,,,,,,,,,,,,,,,,,,,,,,,,,,,,,,,,,,,,478.0975642,478.5979615,478.5979615,478.5979615,479.3475298,479.5980369,None,1,,,,fulltrial,1,2022-10-08_15h13.00.390,N-back_test,2022.2.4,60.36318113
H,space,,,,,,,,,,,,,,,,,,,,,0,8,8,8,,,,,,,,,,,,,,,,,,,,,,,,,,,,,,,,,,,,,,,,,,,,,,,,,,,,,,,,,,,,,,,,,,,,,479.5980369,480.0980849,480.0980849,480.0980849,,,space,1,0.3456853,,,fulltrial,1,2022-10-08_15h13.00.390,N-back_test,2022.2.4,60.36318113
D,None,,,,,,,,,,,,,,,,,,,,,0,9,9,9,,,,,,,,,,,,,,,,,,,,,,,,,,,,,,,,,,,,,,,,,,,,,,,,,,,,,,,,,,,,,,,,,,,,,480.4641216,480.9641597,480.9641597,480.9641597,481.7141966,481.963914,None,1,,,,fulltrial,1,2022-10-08_15h13.00.390,N-back_test,2022.2.4,60.36318113
D,None,,,,,,,,,,,,,,,,,,,,,0,10,10,10,,,,,,,,,,,,,,,,,,,,,,,,,,,,,,,,,,,,,,,,,,,,,,,,,,,,,,,,,,,,,,,,,,,,,481.963914,482.4641154,482.4641154,482.4641154,483.2141671,483.463924,None,1,,,,fulltrial,1,2022-10-08_15h13.00.390,N-back_test,2022.2.4,60.36318113
E,None,,,,,,,,,,,,,,,,,,,,,0,11,11,11,,,,,,,,,,,,,,,,,,,,,,,,,,,,,,,,,,,,,,,,,,,,,,,,,,,,,,,,,,,,,,,,,,,,,483.463924,483.9641134,483.9641134,483.9641134,484.71393,484.9640681,None,1,,,,fulltrial,1,2022-10-08_15h13.00.390,N-back_test,2022.2.4,60.36318113
G,None,,,,,,,,,,,,,,,,,,,,,0,12,12,12,,,,,,,,,,,,,,,,,,,,,,,,,,,,,,,,,,,,,,,,,,,,,,,,,,,,,,,,,,,,,,,,,,,,,484.9640681,485.4638257,485.4638257,485.4638257,486.2139746,486.4640685,None,1,,,,fulltrial,1,2022-10-08_15h13.00.390,N-back_test,2022.2.4,60.36318113
D,space,,,,,,,,,,,,,,,,,,,,,0,13,13,13,,,,,,,,,,,,,,,,,,,,,,,,,,,,,,,,,,,,,,,,,,,,,,,,,,,,,,,,,,,,,,,,,,,,,486.4640685,486.9640455,486.9640455,486.9640455,,,space,1,0.6083226,,,fulltrial,1,2022-10-08_15h13.00.390,N-back_test,2022.2.4,60.36318113
H,None,,,,,,,,,,,,,,,,,,,,,0,14,14,14,,,,,,,,,,,,,,,,,,,,,,,,,,,,,,,,,,,,,,,,,,,,,,,,,,,,,,,,,,,,,,,,,,,,,487.5980087,488.0981841,488.0981841,488.0981841,488.8473134,489.0980007,None,1,,,,fulltrial,1,2022-10-08_15h13.00.390,N-back_test,2022.2.4,60.36318113
I,None,,,,,,,,,,,,,,,,,,,,,0,15,15,15,,,,,,,,,,,,,,,,,,,,,,,,,,,,,,,,,,,,,,,,,,,,,,,,,,,,,,,,,,,,,,,,,,,,,489.0980007,489.5996018,489.5996018,489.5996018,490.3638145,,None,1,,,,fulltrial,1,2022-10-08_15h13.00.390,N-back_test,2022.2.4,60.36318113
A,None,,,,,,,,,,,,,,,,,,,,,0,16,16,16,,,,,,,,,,,,,,,,,,,,,,,,,,,,,,,,,,,,,,,,,,,,,,,,,,,,,,,,,,,,,,,,,,,,,490.6144287,491.1138647,491.0977537,491.0977537,491.8471236,492.0988721,None,1,,,,fulltrial,1,2022-10-08_15h13.00.390,N-back_test,2022.2.4,60.36318113
H,space,,,,,,,,,,,,,,,,,,,,,0,17,17,17,,,,,,,,,,,,,,,,,,,,,,,,,,,,,,,,,,,,,,,,,,,,,,,,,,,,,,,,,,,,,,,,,,,,,492.0988721,492.6139402,492.5974529,492.5974529,,,space,1,0.5799436,,,fulltrial,1,2022-10-08_15h13.00.390,N-back_test,2022.2.4,60.36318113
B,None,,,,,,,,,,,,,,,,,,,,,0,18,18,18,,,,,,,,,,,,,,,,,,,,,,,,,,,,,,,,,,,,,,,,,,,,,,,,,,,,,,,,,,,,,,,,,,,,,493.1972731,493.6977338,493.6977338,493.6977338,494.4471716,494.6974018,None,1,,,,fulltrial,1,2022-10-08_15h13.00.390,N-back_test,2022.2.4,60.36318113
B,None,,,,,,,,,,,,,,,,,,,,,0,19,19,19,,,,,,,,,,,,,,,,,,,,,,,,,,,,,,,,,,,,,,,,,,,,,,,,,,,,,,,,,,,,,,,,,,,,,494.6974018,495.1972608,495.1972608,495.1972608,495.9470556,496.197458,None,1,,,,fulltrial,1,2022-10-08_15h13.00.390,N-back_test,2022.2.4,60.36318113
I,None,,,,,,,,,,,,,,,,,,,,,0,20,20,20,,,,,,,,,,,,,,,,,,,,,,,,,,,,,,,,,,,,,,,,,,,,,,,,,,,,,,,,,,,,,,,,,,,,,496.197458,496.6975223,496.6975223,496.6975223,497.447132,497.6976473,None,1,,,,fulltrial,1,2022-10-08_15h13.00.390,N-back_test,2022.2.4,60.36318113
B,space,,,,,,,,,,,,,,,,,,,,,0,21,21,21,,,,,,,,,,,,,,,,,,,,,,,,,,,,,,,,,,,,,,,,,,,,,,,,,,,,,,,,,,,,,,,,,,,,,497.6976473,498.1970023,498.1970023,498.1970023,,,space,1,0.4135671,,,fulltrial,1,2022-10-08_15h13.00.390,N-back_test,2022.2.4,60.36318113
I,None,,,,,,,,,,,,,,,,,,,,,0,22,22,22,,,,,,,,,,,,,,,,,,,,,,,,,,,,,,,,,,,,,,,,,,,,,,,,,,,,,,,,,,,,,,,,,,,,,498.6304281,499.1305636,499.1305636,499.1305636,499.880527,500.1302422,None,1,,,,fulltrial,1,2022-10-08_15h13.00.390,N-back_test,2022.2.4,60.36318113
C,None,,,,,,,,,,,,,,,,,,,,,0,23,23,23,,,,,,,,,,,,,,,,,,,,,,,,,,,,,,,,,,,,,,,,,,,,,,,,,,,,,,,,,,,,,,,,,,,,,500.1302422,500.6307018,500.6307018,500.6307018,501.3805005,501.6309471,None,1,,,,fulltrial,1,2022-10-08_15h13.00.390,N-back_test,2022.2.4,60.36318113
A,None,,,,,,,,,,,,,,,,,,,,,0,24,24,24,,,,,,,,,,,,,,,,,,,,,,,,,,,,,,,,,,,,,,,,,,,,,,,,,,,,,,,,,,,,,,,,,,,,,501.6309471,502.1304744,502.1138719,502.1138719,502.8637526,503.1136552,None,1,,,,fulltrial,1,2022-10-08_15h13.00.390,N-back_test,2022.2.4,60.36318113
I,space,,,,,,,,,,,,,,,,,,,,,0,25,25,25,,,,,,,,,,,,,,,,,,,,,,,,,,,,,,,,,,,,,,,,,,,,,,,,,,,,,,,,,,,,,,,,,,,,,503.1303202,503.6303071,503.6303071,503.6303071,,,space,1,0.5400258,,,fulltrial,1,2022-10-08_15h13.00.390,N-back_test,2022.2.4,60.36318113
B,None,,,,,,,,,,,,,,,,,,,,,0,26,26,26,,,,,,,,,,,,,,,,,,,,,,,,,,,,,,,,,,,,,,,,,,,,,,,,,,,,,,,,,,,,,,,,,,,,,504.1971925,504.6972729,504.6972729,504.6972729,505.447076,505.697034,None,1,,,,fulltrial,1,2022-10-08_15h13.00.390,N-back_test,2022.2.4,60.36318113
G,None,,,,,,,,,,,,,,,,,,,,,0,27,27,27,,,,,,,,,,,,,,,,,,,,,,,,,,,,,,,,,,,,,,,,,,,,,,,,,,,,,,,,,,,,,,,,,,,,,505.697034,506.1974136,506.1974136,506.1974136,506.9469954,507.1972786,None,1,,,,fulltrial,1,2022-10-08_15h13.00.390,N-back_test,2022.2.4,60.36318113
E,None,,,,,,,,,,,,,,,,,,,,,0,28,28,28,,,,,,,,,,,,,,,,,,,,,,,,,,,,,,,,,,,,,,,,,,,,,,,,,,,,,,,,,,,,,,,,,,,,,507.1972786,507.6976364,507.6976364,507.6976364,508.4467774,508.6973641,None,1,,,,fulltrial,1,2022-10-08_15h13.00.390,N-back_test,2022.2.4,60.36318113
B,space,,,,,,,,,,,,,,,,,,,,,0,29,29,29,,,,,,,,,,,,,,,,,,,,,,,,,,,,,,,,,,,,,,,,,,,,,,,,,,,,,,,,,,,,,,,,,,,,,508.6973641,509.1969301,509.1969301,509.1969301,,,space,1,0.6902848,,,fulltrial,1,2022-10-08_15h13.00.390,N-back_test,2022.2.4,60.36318113
F,None,,,,,,,,,,,,,,,,,,,,,0,30,30,30,,,,,,,,,,,,,,,,,,,,,,,,,,,,,,,,,,,,,,,,,,,,,,,,,,,,,,,,,,,,,,,,,,,,,509.9139009,510.413734,510.413734,510.413734,511.1634232,511.4136174,None,1,,,,fulltrial,1,2022-10-08_15h13.00.390,N-back_test,2022.2.4,60.36318113
H,None,,,,,,,,,,,,,,,,,,,,,0,31,31,31,,,,,,,,,,,,,,,,,,,,,,,,,,,,,,,,,,,,,,,,,,,,,,,,,,,,,,,,,,,,,,,,,,,,,511.4136174,511.91364,511.91364,511.91364,512.6633556,512.9135806,None,1,,,,fulltrial,1,2022-10-08_15h13.00.390,N-back_test,2022.2.4,60.36318113
A,None,,,,,,,,,,,,,,,,,,,,,0,32,32,32,,,,,,,,,,,,,,,,,,,,,,,,,,,,,,,,,,,,,,,,,,,,,,,,,,,,,,,,,,,,,,,,,,,,,512.9135806,513.4136002,513.4136002,513.4136002,514.1635559,514.4136705,None,1,,,,fulltrial,1,2022-10-08_15h13.00.390,N-back_test,2022.2.4,60.36318113
G,None,,,,,,,,,,,,,,,,,,,,,0,33,33,33,,,,,,,,,,,,,,,,,,,,,,,,,,,,,,,,,,,,,,,,,,,,,,,,,,,,,,,,,,,,,,,,,,,,,514.4136705,514.9136412,514.9136412,514.9136412,515.6633633,515.9134952,None,1,,,,fulltrial,1,2022-10-08_15h13.00.390,N-back_test,2022.2.4,60.36318113
H,space,,,,,,,,,,,,,,,,,,,,,0,34,34,34,,,,,,,,,,,,,,,,,,,,,,,,,,,,,,,,,,,,,,,,,,,,,,,,,,,,,,,,,,,,,,,,,,,,,515.9134952,516.4136536,516.4136536,516.4136536,,,space,1,0.6399011,,,fulltrial,1,2022-10-08_15h13.00.390,N-back_test,2022.2.4,60.36318113
A,None,,,,,,,,,,,,,,,,,,,,,0,35,35,35,,,,,,,,,,,,,,,,,,,,,,,,,,,,,,,,,,,,,,,,,,,,,,,,,,,,,,,,,,,,,,,,,,,,,517.0805049,517.5799549,517.5799549,517.5799549,518.3302673,518.5799592,None,1,,,,fulltrial,1,2022-10-08_15h13.00.390,N-back_test,2022.2.4,60.36318113
C,None,,,,,,,,,,,,,,,,,,,,,0,36,36,36,,,,,,,,,,,,,,,,,,,,,,,,,,,,,,,,,,,,,,,,,,,,,,,,,,,,,,,,,,,,,,,,,,,,,518.5799592,519.0803181,519.0803181,519.0803181,519.8300255,520.0803607,None,1,,,,fulltrial,1,2022-10-08_15h13.00.390,N-back_test,2022.2.4,60.36318113
E,None,,,,,,,,,,,,,,,,,,,,,0,37,37,37,,,,,,,,,,,,,,,,,,,,,,,,,,,,,,,,,,,,,,,,,,,,,,,,,,,,,,,,,,,,,,,,,,,,,520.0803607,520.5801689,520.5801689,520.5801689,521.3301076,521.5805729,None,1,,,,fulltrial,1,2022-10-08_15h13.00.390,N-back_test,2022.2.4,60.36318113
F,None,,,,,,,,,,,,,,,,,,,,,0,38,38,38,,,,,,,,,,,,,,,,,,,,,,,,,,,,,,,,,,,,,,,,,,,,,,,,,,,,,,,,,,,,,,,,,,,,,521.5805729,522.080044,522.080044,522.080044,,,space,0,0.4567411,,,fulltrial,1,2022-10-08_15h13.00.390,N-back_test,2022.2.4,60.36318113
G,None,,,,,,,,,,,,,,,,,,,,,0,39,39,39,,,,,,,,,,,,,,,,,,,,,,,,,,,,,,,,,,,,,,,,,,,,,,,,,,,,,,,,,,,,,,,,,,,,,522.5640796,523.0635287,523.0635287,523.0635287,523.8137165,524.0635665,None,1,,,,fulltrial,1,2022-10-08_15h13.00.390,N-back_test,2022.2.4,60.36318113
E,space,,,,,,,,,,,,,,,,,,,,,0,40,40,40,,,,,,,,,,,,,,,,,,,,,,,,,,,,,,,,,,,,,,,,,,,,,,,,,,,,,,,,,,,,,,,,,,,,,524.0635665,524.5634351,524.5634351,524.5634351,525.3134154,525.5633473,None,0,,,,fulltrial,1,2022-10-08_15h13.00.390,N-back_test,2022.2.4,60.36318113
D,None,,,,,,,,,,,,,,,,,,,,,0,41,41,41,,,,,,,,,,,,,,,,,,,,,,,,,,,,,,,,,,,,,,,,,,,,,,,,,,,,,,,,,,,,,,,,,,,,,525.5633473,526.0637509,526.0637509,526.0637509,526.8167964,527.0630788,None,1,,,,fulltrial,1,2022-10-08_15h13.00.390,N-back_test,2022.2.4,60.36318113
I,None,,,,,,,,,,,,,,,,,,,,,0,42,42,42,,,,,,,,,,,,,,,,,,,,,,,,,,,,,,,,,,,,,,,,,,,,,,,,,,,,,,,,,,,,,,,,,,,,,527.0630788,527.562986,527.562986,527.562986,528.3143914,528.563271,None,1,,,,fulltrial,1,2022-10-08_15h13.00.390,N-back_test,2022.2.4,60.36318113
B,None,,,,,,,,,,,,,,,,,,,,,0,43,43,43,,,,,,,,,,,,,,,,,,,,,,,,,,,,,,,,,,,,,,,,,,,,,,,,,,,,,,,,,,,,,,,,,,,,,528.563271,529.0636449,529.0467162,529.0467162,529.7971619,530.0464429,None,1,,,,fulltrial,1,2022-10-08_15h13.00.390,N-back_test,2022.2.4,60.36318113
D,space,,,,,,,,,,,,,,,,,,,,,0,44,44,44,,,,,,,,,,,,,,,,,,,,,,,,,,,,,,,,,,,,,,,,,,,,,,,,,,,,,,,,,,,,,,,,,,,,,530.0633753,530.563496,530.5467157,530.5467157,531.2969527,531.546354,None,0,,,,fulltrial,1,2022-10-08_15h13.00.390,N-back_test,2022.2.4,60.36318113
H,None,,,,,,,,,,,,,,,,,,,,,0,45,45,45,,,,,,,,,,,,,,,,,,,,,,,,,,,,,,,,,,,,,,,,,,,,,,,,,,,,,,,,,,,,,,,,,,,,,531.5633796,532.0632718,532.0632718,532.0632718,532.8132938,533.0632154,None,1,,,,fulltrial,1,2022-10-08_15h13.00.390,N-back_test,2022.2.4,60.36318113
A,None,,,,,,,,,,,,,,,,,,,,,0,46,46,46,,,,,,,,,,,,,,,,,,,,,,,,,,,,,,,,,,,,,,,,,,,,,,,,,,,,,,,,,,,,,,,,,,,,,533.0632154,533.563162,533.563162,533.563162,,,space,0,0.3975142,,,fulltrial,1,2022-10-08_15h13.00.390,N-back_test,2022.2.4,60.36318113
C,None,,,,,,,,,,,,,,,,,,,,,0,47,47,47,,,,,,,,,,,,,,,,,,,,,,,,,,,,,,,,,,,,,,,,,,,,,,,,,,,,,,,,,,,,,,,,,,,,,533.979671,534.4799623,534.4799623,534.4799623,535.2298855,535.4798424,None,1,,,,fulltrial,1,2022-10-08_15h13.00.390,N-back_test,2022.2.4,60.36318113
E,None,,,,,,,,,,,,,,,,,,,,,0,48,48,48,,,,,,,,,,,,,,,,,,,,,,,,,,,,,,,,,,,,,,,,,,,,,,,,,,,,,,,,,,,,,,,,,,,,,535.4798424,535.9799405,535.9799405,535.9799405,536.7299654,536.9796204,None,1,,,,fulltrial,1,2022-10-08_15h13.00.390,N-back_test,2022.2.4,60.36318113
A,space,,,,,,,,,,,,,,,,,,,,,0,49,49,49,,,,,,,,,,,,,,,,,,,,,,,,,,,,,,,,,,,,,,,,,,,,,,,,,,,,,,,,,,,,,,,,,,,,,536.9796204,537.4797442,537.4797442,537.4797442,538.2299272,538.4796007,None,0,,,,fulltrial,1,2022-10-08_15h13.00.390,N-back_test,2022.2.4,60.36318113
,,,,,,,,,,,,,,,,,,,,,,,,,,,,,,,,,,,,,,,,,,,,,,,,,,,,,,,,,,,,,,,,,,,,,,,,,,,,,,,,,,,,,,,,,,,,,,,,,,,,,,,538.4796007,539.9797597,,,,,,
