letter,corrAns,trials.thisRepN,trials.thisTrialN,trials.thisN,trials.thisIndex,trials_2.thisRepN,trials_2.thisTrialN,trials_2.thisN,trials_2.thisIndex,trials_3.thisRepN,trials_3.thisTrialN,trials_3.thisN,trials_3.thisIndex,trials_4.thisRepN,trials_4.thisTrialN,trials_4.thisN,trials_4.thisIndex,trials_5.thisRepN,trials_5.thisTrialN,trials_5.thisN,trials_5.thisIndex,trials_6.thisRepN,trials_6.thisTrialN,trials_6.thisN,trials_6.thisIndex,text.started,key_resp.started,key_resp.keys,key_resp.rt,fixation.started,text_2.started,key_resp_2.started,fixation.stopped,text_2.stopped,key_resp_2.stopped,key_resp_2.keys,key_resp_2.rt,text_4.started,key_resp_4.started,key_resp_4.keys,key_resp_4.rt,fixation1.started,text_3.started,key_resp_3.started,fixation1.stopped,text_3.stopped,key_resp_3.stopped,key_resp_3.keys,key_resp_3.corr,key_resp_3.rt,text_5.started,key_resp_5.started,key_resp_5.keys,key_resp_5.rt,fixation2.started,text_6.started,key_resp_6.started,fixation2.stopped,text_6.stopped,key_resp_6.stopped,key_resp_6.keys,key_resp_6.rt,text_7.started,key_resp_7.started,key_resp_7.keys,key_resp_7.rt,fixation3.started,text_8.started,key_resp_8.started,fixation3.stopped,text_8.stopped,key_resp_8.stopped,key_resp_8.keys,key_resp_8.corr,key_resp_8.rt,text_9.started,key_resp_9.started,key_resp_9.keys,key_resp_9.rt,fixation4.started,fixation4.stopped,text_10.started,key_resp_10.started,key_resp_10.keys,key_resp_10.rt,text_10.stopped,key_resp_10.stopped,text_12.started,key_resp_12.started,key_resp_12.keys,key_resp_12.rt,fixation5.started,text_11.started,key_resp_11.started,fixation5.stopped,text_11.stopped,key_resp_11.stopped,key_resp_11.keys,key_resp_11.corr,key_resp_11.rt,text_13.started,text_13.stopped,participant,session,date,expName,psychopyVersion,frameRate,
,,,,,,,,,,,,,,,,,,,,,,,,,,24.155305300024338,24.155305300024338,space,4.899723000009544,,,,,,,,,,,,,,,,,,,,,,,,,,,,,,,,,,,,,,,,,,,,,,,,,,,,,,,,,,,,,,,,,,,,,,,,,,Manya-Chokshi N-back trials,001,2022-10-09_13h49.46.673,N-back_test,2022.2.2,60.098429208233355,
C,None,0,0,0,0,,,,,,,,,,,,,,,,,,,,,,,,,29.09882930002641,29.580147300031967,29.580147300031967,29.613498700025957,30.33016780001344,30.58994710003026,None,,,,,,,,,,,,,,,,,,,,,,,,,,,,,,,,,,,,,,,,,,,,,,,,,,,,,,,,,,,,,,,,,,,Manya-Chokshi N-back trials,001,2022-10-09_13h49.46.673,N-back_test,2022.2.2,60.098429208233355,
X,None,0,1,1,1,,,,,,,,,,,,,,,,,,,,,,,,,30.58994710003026,31.07962099998258,31.07962099998258,31.096644899982493,31.829780400032178,32.079657200025395,None,,,,,,,,,,,,,,,,,,,,,,,,,,,,,,,,,,,,,,,,,,,,,,,,,,,,,,,,,,,,,,,,,,,Manya-Chokshi N-back trials,001,2022-10-09_13h49.46.673,N-back_test,2022.2.2,60.098429208233355,
Y,None,0,2,2,2,,,,,,,,,,,,,,,,,,,,,,,,,32.079657200025395,32.580022700014524,32.580022700014524,32.580022700014524,33.329620800039265,33.57981209998252,None,,,,,,,,,,,,,,,,,,,,,,,,,,,,,,,,,,,,,,,,,,,,,,,,,,,,,,,,,,,,,,,,,,,Manya-Chokshi N-back trials,001,2022-10-09_13h49.46.673,N-back_test,2022.2.2,60.098429208233355,
Y,space,0,3,3,3,,,,,,,,,,,,,,,,,,,,,,,,,33.57981209998252,34.07968249998521,34.07968249998521,34.07968249998521,,,space,0.40755399997578934,,,,,,,,,,,,,,,,,,,,,,,,,,,,,,,,,,,,,,,,,,,,,,,,,,,,,,,,,,,,,,,,,,Manya-Chokshi N-back trials,001,2022-10-09_13h49.46.673,N-back_test,2022.2.2,60.098429208233355,
R,None,0,4,4,4,,,,,,,,,,,,,,,,,,,,,,,,,34.51268789998721,35.013045500032604,35.013045500032604,35.013045500032604,35.762766400002874,36.01892649999354,None,,,,,,,,,,,,,,,,,,,,,,,,,,,,,,,,,,,,,,,,,,,,,,,,,,,,,,,,,,,,,,,,,,,Manya-Chokshi N-back trials,001,2022-10-09_13h49.46.673,N-back_test,2022.2.2,60.098429208233355,
O,None,0,5,5,5,,,,,,,,,,,,,,,,,,,,,,,,,36.01892649999354,36.512350300035905,36.512350300035905,36.52920620003715,37.262466399988625,37.51354320003884,None,,,,,,,,,,,,,,,,,,,,,,,,,,,,,,,,,,,,,,,,,,,,,,,,,,,,,,,,,,,,,,,,,,,Manya-Chokshi N-back trials,001,2022-10-09_13h49.46.673,N-back_test,2022.2.2,60.098429208233355,
T,None,0,6,6,6,,,,,,,,,,,,,,,,,,,,,,,,,37.51354320003884,38.01235060003819,38.01235060003819,38.02911410003435,38.762052300036885,39.01225790003082,None,,,,,,,,,,,,,,,,,,,,,,,,,,,,,,,,,,,,,,,,,,,,,,,,,,,,,,,,,,,,,,,,,,,Manya-Chokshi N-back trials,001,2022-10-09_13h49.46.673,N-back_test,2022.2.2,60.098429208233355,
T,space,0,7,7,7,,,,,,,,,,,,,,,,,,,,,,,,,39.01225790003082,39.512170400004834,39.512170400004834,39.512170400004834,,,space,0.2517212000093423,,,,,,,,,,,,,,,,,,,,,,,,,,,,,,,,,,,,,,,,,,,,,,,,,,,,,,,,,,,,,,,,,,Manya-Chokshi N-back trials,001,2022-10-09_13h49.46.673,N-back_test,2022.2.2,60.098429208233355,
Q,None,0,8,8,8,,,,,,,,,,,,,,,,,,,,,,,,,39.7953167000087,40.295316500007175,40.295316500007175,40.295316500007175,41.04552310000872,41.295016399992164,None,,,,,,,,,,,,,,,,,,,,,,,,,,,,,,,,,,,,,,,,,,,,,,,,,,,,,,,,,,,,,,,,,,,Manya-Chokshi N-back trials,001,2022-10-09_13h49.46.673,N-back_test,2022.2.2,60.098429208233355,
Q,space,0,9,9,9,,,,,,,,,,,,,,,,,,,,,,,,,41.295016399992164,41.79511080001248,41.79511080001248,41.79511080001248,,,space,0.24269189999904484,,,,,,,,,,,,,,,,,,,,,,,,,,,,,,,,,,,,,,,,,,,,,,,,,,,,,,,,,,,,,,,,,,Manya-Chokshi N-back trials,001,2022-10-09_13h49.46.673,N-back_test,2022.2.2,60.098429208233355,
,,,,,,,,,,,,,,,,,,,,,,,,,,,,,,,,,,,,,,42.062199100037105,42.062199100037105,space,3.677804900042247,,,,,,,,,,,,,,,,,,,,,,,,,,,,,,,,,,,,,,,,,,,,,,,,,,,,,,,,,,,,,,Manya-Chokshi N-back trials,001,2022-10-09_13h49.46.673,N-back_test,2022.2.2,60.098429208233355,
I,None,,,,,0,0,0,0,,,,,,,,,,,,,,,,,,,,,,,,,,,,,,,,,45.76890289998846,46.261625099985395,46.261625099985395,46.278160299989395,47.01074980001431,47.26076129998546,None,1,,,,,,,,,,,,,,,,,,,,,,,,,,,,,,,,,,,,,,,,,,,,,,,,,,,,,,Manya-Chokshi N-back trials,001,2022-10-09_13h49.46.673,N-back_test,2022.2.2,60.098429208233355,
P,None,,,,,0,1,1,1,,,,,,,,,,,,,,,,,,,,,,,,,,,,,,,,,47.26076129998546,47.760610199999064,47.760610199999064,47.760610199999064,48.510925800015684,48.76063199999044,None,1,,,,,,,,,,,,,,,,,,,,,,,,,,,,,,,,,,,,,,,,,,,,,,,,,,,,,,Manya-Chokshi N-back trials,001,2022-10-09_13h49.46.673,N-back_test,2022.2.2,60.098429208233355,
O,None,,,,,0,2,2,2,,,,,,,,,,,,,,,,,,,,,,,,,,,,,,,,,48.76063199999044,49.26094060001196,49.26094060001196,49.26094060001196,50.01043920003576,50.26070670003537,None,1,,,,,,,,,,,,,,,,,,,,,,,,,,,,,,,,,,,,,,,,,,,,,,,,,,,,,,Manya-Chokshi N-back trials,001,2022-10-09_13h49.46.673,N-back_test,2022.2.2,60.098429208233355,
R,None,,,,,0,3,3,3,,,,,,,,,,,,,,,,,,,,,,,,,,,,,,,,,50.26070670003537,50.7605268000043,50.7605268000043,50.7605268000043,51.51074290001998,51.76057340000989,None,1,,,,,,,,,,,,,,,,,,,,,,,,,,,,,,,,,,,,,,,,,,,,,,,,,,,,,,Manya-Chokshi N-back trials,001,2022-10-09_13h49.46.673,N-back_test,2022.2.2,60.098429208233355,
R,space,,,,,0,4,4,4,,,,,,,,,,,,,,,,,,,,,,,,,,,,,,,,,51.76057340000989,52.26064920000499,52.26064920000499,52.26064920000499,,,space,1,0.38211649999720976,,,,,,,,,,,,,,,,,,,,,,,,,,,,,,,,,,,,,,,,,,,,,,,,,,,,,Manya-Chokshi N-back trials,001,2022-10-09_13h49.46.673,N-back_test,2022.2.2,60.098429208233355,
E,None,,,,,0,5,5,5,,,,,,,,,,,,,,,,,,,,,,,,,,,,,,,,,52.66068279999308,53.16034160001436,53.16034160001436,53.16034160001436,53.90997370000696,54.16000329999952,None,1,,,,,,,,,,,,,,,,,,,,,,,,,,,,,,,,,,,,,,,,,,,,,,,,,,,,,,Manya-Chokshi N-back trials,001,2022-10-09_13h49.46.673,N-back_test,2022.2.2,60.098429208233355,
D,None,,,,,0,6,6,6,,,,,,,,,,,,,,,,,,,,,,,,,,,,,,,,,54.16000329999952,54.66042110003764,54.66042110003764,54.66042110003764,55.410456600016914,55.66002240002854,None,1,,,,,,,,,,,,,,,,,,,,,,,,,,,,,,,,,,,,,,,,,,,,,,,,,,,,,,Manya-Chokshi N-back trials,001,2022-10-09_13h49.46.673,N-back_test,2022.2.2,60.098429208233355,
C,None,,,,,0,7,7,7,,,,,,,,,,,,,,,,,,,,,,,,,,,,,,,,,55.66002240002854,56.16010610002559,56.16010610002559,56.16010610002559,,,space,0,0.5091790000442415,,,,,,,,,,,,,,,,,,,,,,,,,,,,,,,,,,,,,,,,,,,,,,,,,,,,,Manya-Chokshi N-back trials,001,2022-10-09_13h49.46.673,N-back_test,2022.2.2,60.098429208233355,
W,None,,,,,0,8,8,8,,,,,,,,,,,,,,,,,,,,,,,,,,,,,,,,,56.700230000016745,57.192991800024174,57.192991800024174,57.21000640001148,57.94306770002004,58.19343200000003,None,1,,,,,,,,,,,,,,,,,,,,,,,,,,,,,,,,,,,,,,,,,,,,,,,,,,,,,,Manya-Chokshi N-back trials,001,2022-10-09_13h49.46.673,N-back_test,2022.2.2,60.098429208233355,
T,None,,,,,0,9,9,9,,,,,,,,,,,,,,,,,,,,,,,,,,,,,,,,,58.19343200000003,58.693181700014975,58.693181700014975,58.693181700014975,59.442845900019165,59.69309690000955,None,1,,,,,,,,,,,,,,,,,,,,,,,,,,,,,,,,,,,,,,,,,,,,,,,,,,,,,,Manya-Chokshi N-back trials,001,2022-10-09_13h49.46.673,N-back_test,2022.2.2,60.098429208233355,
T,space,,,,,0,10,10,10,,,,,,,,,,,,,,,,,,,,,,,,,,,,,,,,,59.69309690000955,60.19305350002833,60.19305350002833,60.19305350002833,,,space,1,0.4110293000121601,,,,,,,,,,,,,,,,,,,,,,,,,,,,,,,,,,,,,,,,,,,,,,,,,,,,,Manya-Chokshi N-back trials,001,2022-10-09_13h49.46.673,N-back_test,2022.2.2,60.098429208233355,
Q,None,,,,,0,11,11,11,,,,,,,,,,,,,,,,,,,,,,,,,,,,,,,,,60.62826160003897,61.12587360001635,61.12587360001635,61.14275500003714,61.875631300034,62.126126100018155,None,1,,,,,,,,,,,,,,,,,,,,,,,,,,,,,,,,,,,,,,,,,,,,,,,,,,,,,,Manya-Chokshi N-back trials,001,2022-10-09_13h49.46.673,N-back_test,2022.2.2,60.098429208233355,
Q,space,,,,,0,12,12,12,,,,,,,,,,,,,,,,,,,,,,,,,,,,,,,,,62.126126100018155,62.626042300020345,62.626042300020345,62.626042300020345,,,space,1,0.3615444000461139,,,,,,,,,,,,,,,,,,,,,,,,,,,,,,,,,,,,,,,,,,,,,,,,,,,,,Manya-Chokshi N-back trials,001,2022-10-09_13h49.46.673,N-back_test,2022.2.2,60.098429208233355,
R,None,,,,,0,13,13,13,,,,,,,,,,,,,,,,,,,,,,,,,,,,,,,,,63.00898199999938,63.508965599990916,63.508965599990916,63.508965599990916,64.25907319999533,64.5160285999882,None,1,,,,,,,,,,,,,,,,,,,,,,,,,,,,,,,,,,,,,,,,,,,,,,,,,,,,,,Manya-Chokshi N-back trials,001,2022-10-09_13h49.46.673,N-back_test,2022.2.2,60.098429208233355,
K,None,,,,,0,14,14,14,,,,,,,,,,,,,,,,,,,,,,,,,,,,,,,,,64.5160285999882,65.0089020000305,65.0089020000305,65.02535380003974,65.75900379999075,66.00858989998233,None,1,,,,,,,,,,,,,,,,,,,,,,,,,,,,,,,,,,,,,,,,,,,,,,,,,,,,,,Manya-Chokshi N-back trials,001,2022-10-09_13h49.46.673,N-back_test,2022.2.2,60.098429208233355,
K,space,,,,,0,15,15,15,,,,,,,,,,,,,,,,,,,,,,,,,,,,,,,,,66.00858989998233,66.50866749999113,66.50866749999113,66.50866749999113,,,space,1,0.42924510000739247,,,,,,,,,,,,,,,,,,,,,,,,,,,,,,,,,,,,,,,,,,,,,,,,,,,,,Manya-Chokshi N-back trials,001,2022-10-09_13h49.46.673,N-back_test,2022.2.2,60.098429208233355,
L,None,,,,,0,16,16,16,,,,,,,,,,,,,,,,,,,,,,,,,,,,,,,,,66.95821320003597,67.44162779999897,67.44162779999897,67.45818840002175,68.1916748000076,68.4416849000263,None,1,,,,,,,,,,,,,,,,,,,,,,,,,,,,,,,,,,,,,,,,,,,,,,,,,,,,,,Manya-Chokshi N-back trials,001,2022-10-09_13h49.46.673,N-back_test,2022.2.2,60.098429208233355,
C,None,,,,,0,17,17,17,,,,,,,,,,,,,,,,,,,,,,,,,,,,,,,,,68.4416849000263,68.95792200003052,68.95792200003052,68.9415682000108,69.70799510000506,69.95788870000979,None,1,,,,,,,,,,,,,,,,,,,,,,,,,,,,,,,,,,,,,,,,,,,,,,,,,,,,,,Manya-Chokshi N-back trials,001,2022-10-09_13h49.46.673,N-back_test,2022.2.2,60.098429208233355,
C,space,,,,,0,18,18,18,,,,,,,,,,,,,,,,,,,,,,,,,,,,,,,,,69.95788870000979,70.45825989998411,70.45825989998411,70.45825989998411,,,space,1,0.38169990002643317,,,,,,,,,,,,,,,,,,,,,,,,,,,,,,,,,,,,,,,,,,,,,,,,,,,,,Manya-Chokshi N-back trials,001,2022-10-09_13h49.46.673,N-back_test,2022.2.2,60.098429208233355,
Y,None,,,,,0,19,19,19,,,,,,,,,,,,,,,,,,,,,,,,,,,,,,,,,70.85790760000236,71.35766829998465,71.35766829998465,71.35766829998465,72.10836680000648,72.35785269999178,None,1,,,,,,,,,,,,,,,,,,,,,,,,,,,,,,,,,,,,,,,,,,,,,,,,,,,,,,Manya-Chokshi N-back trials,001,2022-10-09_13h49.46.673,N-back_test,2022.2.2,60.098429208233355,
X,None,,,,,0,20,20,20,,,,,,,,,,,,,,,,,,,,,,,,,,,,,,,,,72.35785269999178,72.85787270002766,72.85787270002766,72.85787270002766,73.60793719999492,73.8577074999921,None,1,,,,,,,,,,,,,,,,,,,,,,,,,,,,,,,,,,,,,,,,,,,,,,,,,,,,,,Manya-Chokshi N-back trials,001,2022-10-09_13h49.46.673,N-back_test,2022.2.2,60.098429208233355,
W,None,,,,,0,21,21,21,,,,,,,,,,,,,,,,,,,,,,,,,,,,,,,,,73.8577074999921,74.35793120000744,74.35793120000744,74.35793120000744,75.10789540002588,75.35718069999712,None,1,,,,,,,,,,,,,,,,,,,,,,,,,,,,,,,,,,,,,,,,,,,,,,,,,,,,,,Manya-Chokshi N-back trials,001,2022-10-09_13h49.46.673,N-back_test,2022.2.2,60.098429208233355,
R,None,,,,,0,22,22,22,,,,,,,,,,,,,,,,,,,,,,,,,,,,,,,,,75.35718069999712,75.85702150000725,75.85702150000725,75.85702150000725,76.60693380003795,76.85686020000139,None,1,,,,,,,,,,,,,,,,,,,,,,,,,,,,,,,,,,,,,,,,,,,,,,,,,,,,,,Manya-Chokshi N-back trials,001,2022-10-09_13h49.46.673,N-back_test,2022.2.2,60.098429208233355,
M,None,,,,,0,23,23,23,,,,,,,,,,,,,,,,,,,,,,,,,,,,,,,,,76.85686020000139,77.3569461000152,77.3569461000152,77.3569461000152,78.10687820002204,78.35670760000357,None,1,,,,,,,,,,,,,,,,,,,,,,,,,,,,,,,,,,,,,,,,,,,,,,,,,,,,,,Manya-Chokshi N-back trials,001,2022-10-09_13h49.46.673,N-back_test,2022.2.2,60.098429208233355,
M,space,,,,,0,24,24,24,,,,,,,,,,,,,,,,,,,,,,,,,,,,,,,,,78.35670760000357,78.8566764999996,78.8566764999996,78.8566764999996,,,space,1,0.4996323000523262,,,,,,,,,,,,,,,,,,,,,,,,,,,,,,,,,,,,,,,,,,,,,,,,,,,,,Manya-Chokshi N-back trials,001,2022-10-09_13h49.46.673,N-back_test,2022.2.2,60.098429208233355,
E,None,,,,,0,25,25,25,,,,,,,,,,,,,,,,,,,,,,,,,,,,,,,,,79.37318540003616,79.87316120002652,79.87316120002652,79.87316120002652,80.6232756000245,80.87300429999596,None,1,,,,,,,,,,,,,,,,,,,,,,,,,,,,,,,,,,,,,,,,,,,,,,,,,,,,,,Manya-Chokshi N-back trials,001,2022-10-09_13h49.46.673,N-back_test,2022.2.2,60.098429208233355,
R,None,,,,,0,26,26,26,,,,,,,,,,,,,,,,,,,,,,,,,,,,,,,,,80.87300429999596,81.37295119999908,81.37295119999908,81.37295119999908,82.1229262999841,82.37277110002469,None,1,,,,,,,,,,,,,,,,,,,,,,,,,,,,,,,,,,,,,,,,,,,,,,,,,,,,,,Manya-Chokshi N-back trials,001,2022-10-09_13h49.46.673,N-back_test,2022.2.2,60.098429208233355,
U,None,,,,,0,27,27,27,,,,,,,,,,,,,,,,,,,,,,,,,,,,,,,,,82.37277110002469,82.87282069999492,82.87282069999492,82.87282069999492,83.62267880002037,83.87268159998348,None,1,,,,,,,,,,,,,,,,,,,,,,,,,,,,,,,,,,,,,,,,,,,,,,,,,,,,,,Manya-Chokshi N-back trials,001,2022-10-09_13h49.46.673,N-back_test,2022.2.2,60.098429208233355,
U,space,,,,,0,28,28,28,,,,,,,,,,,,,,,,,,,,,,,,,,,,,,,,,83.87268159998348,84.37262640002882,84.37262640002882,84.37262640002882,,,space,1,0.38045399996917695,,,,,,,,,,,,,,,,,,,,,,,,,,,,,,,,,,,,,,,,,,,,,,,,,,,,,Manya-Chokshi N-back trials,001,2022-10-09_13h49.46.673,N-back_test,2022.2.2,60.098429208233355,
A,None,,,,,0,29,29,29,,,,,,,,,,,,,,,,,,,,,,,,,,,,,,,,,84.77270959998714,85.27246150001884,85.27246150001884,85.27246150001884,86.02233000000706,86.27244219998829,None,1,,,,,,,,,,,,,,,,,,,,,,,,,,,,,,,,,,,,,,,,,,,,,,,,,,,,,,Manya-Chokshi N-back trials,001,2022-10-09_13h49.46.673,N-back_test,2022.2.2,60.098429208233355,
B,None,,,,,0,30,30,30,,,,,,,,,,,,,,,,,,,,,,,,,,,,,,,,,86.27244219998829,86.77230180002516,86.77230180002516,86.77230180002516,87.52234500000486,87.77210679999553,None,1,,,,,,,,,,,,,,,,,,,,,,,,,,,,,,,,,,,,,,,,,,,,,,,,,,,,,,Manya-Chokshi N-back trials,001,2022-10-09_13h49.46.673,N-back_test,2022.2.2,60.098429208233355,
T,None,,,,,0,31,31,31,,,,,,,,,,,,,,,,,,,,,,,,,,,,,,,,,87.77210679999553,88.2720289999852,88.2720289999852,88.2720289999852,89.02197840000736,89.27192740002647,None,1,,,,,,,,,,,,,,,,,,,,,,,,,,,,,,,,,,,,,,,,,,,,,,,,,,,,,,Manya-Chokshi N-back trials,001,2022-10-09_13h49.46.673,N-back_test,2022.2.2,60.098429208233355,
Y,None,,,,,0,32,32,32,,,,,,,,,,,,,,,,,,,,,,,,,,,,,,,,,89.27192740002647,89.77189119998366,89.77189119998366,89.77189119998366,90.52180270000827,90.77177849999862,None,1,,,,,,,,,,,,,,,,,,,,,,,,,,,,,,,,,,,,,,,,,,,,,,,,,,,,,,Manya-Chokshi N-back trials,001,2022-10-09_13h49.46.673,N-back_test,2022.2.2,60.098429208233355,
W,None,,,,,0,33,33,33,,,,,,,,,,,,,,,,,,,,,,,,,,,,,,,,,90.77177849999862,91.27169050002703,91.27169050002703,91.27169050002703,92.02155200002016,92.27158340002643,None,1,,,,,,,,,,,,,,,,,,,,,,,,,,,,,,,,,,,,,,,,,,,,,,,,,,,,,,Manya-Chokshi N-back trials,001,2022-10-09_13h49.46.673,N-back_test,2022.2.2,60.098429208233355,
X,None,,,,,0,34,34,34,,,,,,,,,,,,,,,,,,,,,,,,,,,,,,,,,92.27158340002643,92.77144819998648,92.77144819998648,92.77144819998648,93.52144710003631,93.77135860000271,None,1,,,,,,,,,,,,,,,,,,,,,,,,,,,,,,,,,,,,,,,,,,,,,,,,,,,,,,Manya-Chokshi N-back trials,001,2022-10-09_13h49.46.673,N-back_test,2022.2.2,60.098429208233355,
X,space,,,,,0,35,35,35,,,,,,,,,,,,,,,,,,,,,,,,,,,,,,,,,93.77135860000271,94.27144470001804,94.27144470001804,94.27144470001804,,,space,1,0.3788036000332795,,,,,,,,,,,,,,,,,,,,,,,,,,,,,,,,,,,,,,,,,,,,,,,,,,,,,Manya-Chokshi N-back trials,001,2022-10-09_13h49.46.673,N-back_test,2022.2.2,60.098429208233355,
P,None,,,,,0,36,36,36,,,,,,,,,,,,,,,,,,,,,,,,,,,,,,,,,94.67122190003283,95.17139889998361,95.17139889998361,95.17139889998361,95.92120169999544,96.17109840002377,None,1,,,,,,,,,,,,,,,,,,,,,,,,,,,,,,,,,,,,,,,,,,,,,,,,,,,,,,Manya-Chokshi N-back trials,001,2022-10-09_13h49.46.673,N-back_test,2022.2.2,60.098429208233355,
F,None,,,,,0,37,37,37,,,,,,,,,,,,,,,,,,,,,,,,,,,,,,,,,96.17109840002377,96.67100650002249,96.67100650002249,96.67100650002249,97.42090209998423,97.6708471000311,None,1,,,,,,,,,,,,,,,,,,,,,,,,,,,,,,,,,,,,,,,,,,,,,,,,,,,,,,Manya-Chokshi N-back trials,001,2022-10-09_13h49.46.673,N-back_test,2022.2.2,60.098429208233355,
W,None,,,,,0,38,38,38,,,,,,,,,,,,,,,,,,,,,,,,,,,,,,,,,97.6708471000311,98.17082649999065,98.17082649999065,98.17082649999065,98.92070900002727,99.17075749998912,None,1,,,,,,,,,,,,,,,,,,,,,,,,,,,,,,,,,,,,,,,,,,,,,,,,,,,,,,Manya-Chokshi N-back trials,001,2022-10-09_13h49.46.673,N-back_test,2022.2.2,60.098429208233355,
W,space,,,,,0,39,39,39,,,,,,,,,,,,,,,,,,,,,,,,,,,,,,,,,99.17075749998912,99.67066559998784,99.67066559998784,99.67066559998784,,,space,1,0.3810177999548614,,,,,,,,,,,,,,,,,,,,,,,,,,,,,,,,,,,,,,,,,,,,,,,,,,,,,Manya-Chokshi N-back trials,001,2022-10-09_13h49.46.673,N-back_test,2022.2.2,60.098429208233355,
K,None,,,,,0,40,40,40,,,,,,,,,,,,,,,,,,,,,,,,,,,,,,,,,100.07052910001948,100.55415919999359,100.55415919999359,100.57101590000093,101.30438260000665,101.5549439000315,None,1,,,,,,,,,,,,,,,,,,,,,,,,,,,,,,,,,,,,,,,,,,,,,,,,,,,,,,Manya-Chokshi N-back trials,001,2022-10-09_13h49.46.673,N-back_test,2022.2.2,60.098429208233355,
L,None,,,,,0,41,41,41,,,,,,,,,,,,,,,,,,,,,,,,,,,,,,,,,101.5549439000315,102.05405239999527,102.05405239999527,102.05405239999527,102.80391090002377,103.05650579999201,None,1,,,,,,,,,,,,,,,,,,,,,,,,,,,,,,,,,,,,,,,,,,,,,,,,,,,,,,Manya-Chokshi N-back trials,001,2022-10-09_13h49.46.673,N-back_test,2022.2.2,60.098429208233355,
N,None,,,,,0,42,42,42,,,,,,,,,,,,,,,,,,,,,,,,,,,,,,,,,103.07036409998545,103.57088549999753,103.57088549999753,103.57088549999753,104.32048280001618,104.57015049998881,None,1,,,,,,,,,,,,,,,,,,,,,,,,,,,,,,,,,,,,,,,,,,,,,,,,,,,,,,Manya-Chokshi N-back trials,001,2022-10-09_13h49.46.673,N-back_test,2022.2.2,60.098429208233355,
D,None,,,,,0,43,43,43,,,,,,,,,,,,,,,,,,,,,,,,,,,,,,,,,104.57015049998881,105.07074170000851,105.07074170000851,105.07074170000851,105.82033810002031,106.07025859999703,None,1,,,,,,,,,,,,,,,,,,,,,,,,,,,,,,,,,,,,,,,,,,,,,,,,,,,,,,Manya-Chokshi N-back trials,001,2022-10-09_13h49.46.673,N-back_test,2022.2.2,60.098429208233355,
Q,None,,,,,0,44,44,44,,,,,,,,,,,,,,,,,,,,,,,,,,,,,,,,,106.07025859999703,106.5701865000301,106.5701865000301,106.5701865000301,107.32034839998232,107.56963700003689,None,1,,,,,,,,,,,,,,,,,,,,,,,,,,,,,,,,,,,,,,,,,,,,,,,,,,,,,,Manya-Chokshi N-back trials,001,2022-10-09_13h49.46.673,N-back_test,2022.2.2,60.098429208233355,
Z,None,,,,,0,45,45,45,,,,,,,,,,,,,,,,,,,,,,,,,,,,,,,,,107.56963700003689,108.06999729998643,108.06999729998643,108.06999729998643,108.81951960001606,109.06964619999053,None,1,,,,,,,,,,,,,,,,,,,,,,,,,,,,,,,,,,,,,,,,,,,,,,,,,,,,,,Manya-Chokshi N-back trials,001,2022-10-09_13h49.46.673,N-back_test,2022.2.2,60.098429208233355,
Z,space,,,,,0,46,46,46,,,,,,,,,,,,,,,,,,,,,,,,,,,,,,,,,109.06964619999053,109.56988399999682,109.56988399999682,109.56988399999682,,,space,1,0.33262409997405484,,,,,,,,,,,,,,,,,,,,,,,,,,,,,,,,,,,,,,,,,,,,,,,,,,,,,Manya-Chokshi N-back trials,001,2022-10-09_13h49.46.673,N-back_test,2022.2.2,60.098429208233355,
F,None,,,,,0,47,47,47,,,,,,,,,,,,,,,,,,,,,,,,,,,,,,,,,109.91945430001942,110.41980590001913,110.41980590001913,110.41980590001913,111.1696774000302,111.41940950002754,None,1,,,,,,,,,,,,,,,,,,,,,,,,,,,,,,,,,,,,,,,,,,,,,,,,,,,,,,Manya-Chokshi N-back trials,001,2022-10-09_13h49.46.673,N-back_test,2022.2.2,60.098429208233355,
G,None,,,,,0,48,48,48,,,,,,,,,,,,,,,,,,,,,,,,,,,,,,,,,111.41940950002754,111.91969529999187,111.91969529999187,111.91969529999187,112.66948250000132,112.91932260000613,None,1,,,,,,,,,,,,,,,,,,,,,,,,,,,,,,,,,,,,,,,,,,,,,,,,,,,,,,Manya-Chokshi N-back trials,001,2022-10-09_13h49.46.673,N-back_test,2022.2.2,60.098429208233355,
G,space,,,,,0,49,49,49,,,,,,,,,,,,,,,,,,,,,,,,,,,,,,,,,112.91932260000613,113.41928400000324,113.41928400000324,113.41928400000324,,,space,1,0.41586810001172125,,,,,,,,,,,,,,,,,,,,,,,,,,,,,,,,,,,,,,,,,,,,,,,,,,,,,Manya-Chokshi N-back trials,001,2022-10-09_13h49.46.673,N-back_test,2022.2.2,60.098429208233355,
,,,,,,,,,,,,,,,,,,,,,,,,,,,,,,,,,,,,,,,,,,,,,,,,,,,113.85350750002544,113.85350750002544,space,3.4995590999606065,,,,,,,,,,,,,,,,,,,,,,,,,,,,,,,,,,,,,,,,,,,,,,,,,Manya-Chokshi N-back trials,001,2022-10-09_13h49.46.673,N-back_test,2022.2.2,60.098429208233355,
A,None,,,,,,,,,0,0,0,0,,,,,,,,,,,,,,,,,,,,,,,,,,,,,,,,,,,,,,,,,,117.37483640003484,117.86871160002192,117.86871160002192,117.88537939998787,118.61843570001656,118.86852309998358,None,,,,,,,,,,,,,,,,,,,,,,,,,,,,,,,,,,,,,,,,,,Manya-Chokshi N-back trials,001,2022-10-09_13h49.46.673,N-back_test,2022.2.2,60.098429208233355,
H,None,,,,,,,,,0,1,1,1,,,,,,,,,,,,,,,,,,,,,,,,,,,,,,,,,,,,,,,,,,118.86852309998358,119.36883009999292,119.36883009999292,119.36883009999292,120.11843060003594,120.3684030000004,None,,,,,,,,,,,,,,,,,,,,,,,,,,,,,,,,,,,,,,,,,,Manya-Chokshi N-back trials,001,2022-10-09_13h49.46.673,N-back_test,2022.2.2,60.098429208233355,
C,None,,,,,,,,,0,2,2,2,,,,,,,,,,,,,,,,,,,,,,,,,,,,,,,,,,,,,,,,,,120.3684030000004,120.86866350000491,120.86866350000491,120.86866350000491,121.61825780000072,121.86819250002736,None,,,,,,,,,,,,,,,,,,,,,,,,,,,,,,,,,,,,,,,,,,Manya-Chokshi N-back trials,001,2022-10-09_13h49.46.673,N-back_test,2022.2.2,60.098429208233355,
H,space,,,,,,,,,0,3,3,3,,,,,,,,,,,,,,,,,,,,,,,,,,,,,,,,,,,,,,,,,,121.86819250002736,122.36821250000503,122.36821250000503,122.36821250000503,,,space,0.37754539999878034,,,,,,,,,,,,,,,,,,,,,,,,,,,,,,,,,,,,,,,,,Manya-Chokshi N-back trials,001,2022-10-09_13h49.46.673,N-back_test,2022.2.2,60.098429208233355,
F,None,,,,,,,,,0,4,4,4,,,,,,,,,,,,,,,,,,,,,,,,,,,,,,,,,,,,,,,,,,122.76805180002702,123.26835239998763,123.26835239998763,123.26835239998763,124.01827370002866,124.26792750001187,None,,,,,,,,,,,,,,,,,,,,,,,,,,,,,,,,,,,,,,,,,,Manya-Chokshi N-back trials,001,2022-10-09_13h49.46.673,N-back_test,2022.2.2,60.098429208233355,
A,None,,,,,,,,,0,5,5,5,,,,,,,,,,,,,,,,,,,,,,,,,,,,,,,,,,,,,,,,,,124.26792750001187,124.76772450003773,124.76772450003773,124.76772450003773,125.51791709999088,125.76780750002945,None,,,,,,,,,,,,,,,,,,,,,,,,,,,,,,,,,,,,,,,,,,Manya-Chokshi N-back trials,001,2022-10-09_13h49.46.673,N-back_test,2022.2.2,60.098429208233355,
F,space,,,,,,,,,0,6,6,6,,,,,,,,,,,,,,,,,,,,,,,,,,,,,,,,,,,,,,,,,,125.76780750002945,126.26781300001312,126.26781300001312,126.26781300001312,,,space,0.39498649997403845,,,,,,,,,,,,,,,,,,,,,,,,,,,,,,,,,,,,,,,,,Manya-Chokshi N-back trials,001,2022-10-09_13h49.46.673,N-back_test,2022.2.2,60.098429208233355,
B,None,,,,,,,,,0,7,7,7,,,,,,,,,,,,,,,,,,,,,,,,,,,,,,,,,,,,,,,,,,126.68427690002136,127.18442589999177,127.18442589999177,127.18442589999177,127.93410290003521,128.1850359000382,None,,,,,,,,,,,,,,,,,,,,,,,,,,,,,,,,,,,,,,,,,,Manya-Chokshi N-back trials,001,2022-10-09_13h49.46.673,N-back_test,2022.2.2,60.098429208233355,
A,None,,,,,,,,,0,8,8,8,,,,,,,,,,,,,,,,,,,,,,,,,,,,,,,,,,,,,,,,,,128.1850359000382,128.68403400003444,128.68403400003444,128.68403400003444,129.43404319998808,129.68381000001682,None,,,,,,,,,,,,,,,,,,,,,,,,,,,,,,,,,,,,,,,,,,Manya-Chokshi N-back trials,001,2022-10-09_13h49.46.673,N-back_test,2022.2.2,60.098429208233355,
B,space,,,,,,,,,0,9,9,9,,,,,,,,,,,,,,,,,,,,,,,,,,,,,,,,,,,,,,,,,,129.68381000001682,130.18410960002802,130.18410960002802,130.18410960002802,,,space,0.42667630000505596,,,,,,,,,,,,,,,,,,,,,,,,,,,,,,,,,,,,,,,,,Manya-Chokshi N-back trials,001,2022-10-09_13h49.46.673,N-back_test,2022.2.2,60.098429208233355,
,,,,,,,,,,,,,,,,,,,,,,,,,,,,,,,,,,,,,,,,,,,,,,,,,,,,,,,,,,,,,,,130.63849889999256,130.63849889999256,space,2.133073700009845,,,,,,,,,,,,,,,,,,,,,,,,,,,,,,,,,,,,,Manya-Chokshi N-back trials,001,2022-10-09_13h49.46.673,N-back_test,2022.2.2,60.098429208233355,
C,None,,,,,,,,,,,,,0,0,0,0,,,,,,,,,,,,,,,,,,,,,,,,,,,,,,,,,,,,,,,,,,,,,,,,,,132.81417130003683,133.29964230000041,133.29964230000041,133.31715429999167,134.04985230002785,134.29973660001997,None,1,,,,,,,,,,,,,,,,,,,,,,,,,,,,,Manya-Chokshi N-back trials,001,2022-10-09_13h49.46.673,N-back_test,2022.2.2,60.098429208233355,
J,None,,,,,,,,,,,,,0,1,1,1,,,,,,,,,,,,,,,,,,,,,,,,,,,,,,,,,,,,,,,,,,,,,,,,,,134.29973660001997,134.79965120000998,134.79965120000998,134.79965120000998,135.5496830000193,135.79969389998587,None,1,,,,,,,,,,,,,,,,,,,,,,,,,,,,,Manya-Chokshi N-back trials,001,2022-10-09_13h49.46.673,N-back_test,2022.2.2,60.098429208233355,
C,space,,,,,,,,,,,,,0,2,2,2,,,,,,,,,,,,,,,,,,,,,,,,,,,,,,,,,,,,,,,,,,,,,,,,,,135.79969389998587,136.29989239998395,136.29989239998395,136.29989239998395,,,space,1,0.5343145999941044,,,,,,,,,,,,,,,,,,,,,,,,,,,,Manya-Chokshi N-back trials,001,2022-10-09_13h49.46.673,N-back_test,2022.2.2,60.098429208233355,
A,None,,,,,,,,,,,,,0,3,3,3,,,,,,,,,,,,,,,,,,,,,,,,,,,,,,,,,,,,,,,,,,,,,,,,,,136.86590460001025,137.3661460999865,137.3661460999865,137.3661460999865,138.11620799999218,138.36622249998618,None,1,,,,,,,,,,,,,,,,,,,,,,,,,,,,,Manya-Chokshi N-back trials,001,2022-10-09_13h49.46.673,N-back_test,2022.2.2,60.098429208233355,
I,None,,,,,,,,,,,,,0,4,4,4,,,,,,,,,,,,,,,,,,,,,,,,,,,,,,,,,,,,,,,,,,,,,,,,,,138.36622249998618,138.86598020000383,138.86598020000383,138.86598020000383,139.61620109999785,139.8660124000162,None,1,,,,,,,,,,,,,,,,,,,,,,,,,,,,,Manya-Chokshi N-back trials,001,2022-10-09_13h49.46.673,N-back_test,2022.2.2,60.098429208233355,
A,space,,,,,,,,,,,,,0,5,5,5,,,,,,,,,,,,,,,,,,,,,,,,,,,,,,,,,,,,,,,,,,,,,,,,,,139.8660124000162,140.36587979999604,140.36587979999604,140.36587979999604,,,space,1,0.43968090001726523,,,,,,,,,,,,,,,,,,,,,,,,,,,,Manya-Chokshi N-back trials,001,2022-10-09_13h49.46.673,N-back_test,2022.2.2,60.098429208233355,
G,None,,,,,,,,,,,,,0,6,6,6,,,,,,,,,,,,,,,,,,,,,,,,,,,,,,,,,,,,,,,,,,,,,,,,,,140.83229300001403,141.33219829999143,141.33219829999143,141.33219829999143,142.08235099999,142.33209350000834,None,1,,,,,,,,,,,,,,,,,,,,,,,,,,,,,Manya-Chokshi N-back trials,001,2022-10-09_13h49.46.673,N-back_test,2022.2.2,60.098429208233355,
A,space,,,,,,,,,,,,,0,7,7,7,,,,,,,,,,,,,,,,,,,,,,,,,,,,,,,,,,,,,,,,,,,,,,,,,,142.33209350000834,142.83247890003258,142.83247890003258,142.83247890003258,143.58210480003618,143.83352520002518,None,0,,,,,,,,,,,,,,,,,,,,,,,,,,,,,Manya-Chokshi N-back trials,001,2022-10-09_13h49.46.673,N-back_test,2022.2.2,60.098429208233355,
H,None,,,,,,,,,,,,,0,8,8,8,,,,,,,,,,,,,,,,,,,,,,,,,,,,,,,,,,,,,,,,,,,,,,,,,,143.83352520002518,144.33175459998893,144.33175459998893,144.34838660003152,145.08205949998228,145.33203560003312,None,1,,,,,,,,,,,,,,,,,,,,,,,,,,,,,Manya-Chokshi N-back trials,001,2022-10-09_13h49.46.673,N-back_test,2022.2.2,60.098429208233355,
C,None,,,,,,,,,,,,,0,9,9,9,,,,,,,,,,,,,,,,,,,,,,,,,,,,,,,,,,,,,,,,,,,,,,,,,,145.33203560003312,145.83165569999255,145.83165569999255,145.83165569999255,146.5818689999869,146.83165880001616,None,1,,,,,,,,,,,,,,,,,,,,,,,,,,,,,Manya-Chokshi N-back trials,001,2022-10-09_13h49.46.673,N-back_test,2022.2.2,60.098429208233355,
H,space,,,,,,,,,,,,,0,10,10,10,,,,,,,,,,,,,,,,,,,,,,,,,,,,,,,,,,,,,,,,,,,,,,,,,,146.83165880001616,147.33168150001438,147.33168150001438,147.33168150001438,148.08178100001533,148.331555199984,None,0,,,,,,,,,,,,,,,,,,,,,,,,,,,,,Manya-Chokshi N-back trials,001,2022-10-09_13h49.46.673,N-back_test,2022.2.2,60.098429208233355,
F,None,,,,,,,,,,,,,0,11,11,11,,,,,,,,,,,,,,,,,,,,,,,,,,,,,,,,,,,,,,,,,,,,,,,,,,148.331555199984,148.83115059998818,148.83115059998818,148.83115059998818,149.5811948000337,149.8314260999905,None,1,,,,,,,,,,,,,,,,,,,,,,,,,,,,,Manya-Chokshi N-back trials,001,2022-10-09_13h49.46.673,N-back_test,2022.2.2,60.098429208233355,
A,None,,,,,,,,,,,,,0,12,12,12,,,,,,,,,,,,,,,,,,,,,,,,,,,,,,,,,,,,,,,,,,,,,,,,,,149.8314260999905,150.33114880003268,150.33114880003268,150.33114880003268,151.08108780003386,151.33101870003156,None,1,,,,,,,,,,,,,,,,,,,,,,,,,,,,,Manya-Chokshi N-back trials,001,2022-10-09_13h49.46.673,N-back_test,2022.2.2,60.098429208233355,
F,space,,,,,,,,,,,,,0,13,13,13,,,,,,,,,,,,,,,,,,,,,,,,,,,,,,,,,,,,,,,,,,,,,,,,,,151.33101870003156,151.83106870000483,151.83106870000483,151.83106870000483,,,space,1,0.4009917000075802,,,,,,,,,,,,,,,,,,,,,,,,,,,,Manya-Chokshi N-back trials,001,2022-10-09_13h49.46.673,N-back_test,2022.2.2,60.098429208233355,
B,None,,,,,,,,,,,,,0,14,14,14,,,,,,,,,,,,,,,,,,,,,,,,,,,,,,,,,,,,,,,,,,,,,,,,,,152.26504319999367,152.7641639999929,152.7641639999929,152.7641639999929,153.5140005000285,153.76384820003295,None,1,,,,,,,,,,,,,,,,,,,,,,,,,,,,,Manya-Chokshi N-back trials,001,2022-10-09_13h49.46.673,N-back_test,2022.2.2,60.098429208233355,
A,None,,,,,,,,,,,,,0,15,15,15,,,,,,,,,,,,,,,,,,,,,,,,,,,,,,,,,,,,,,,,,,,,,,,,,,153.76384820003295,154.26435449998826,154.26435449998826,154.26435449998826,155.0136446999968,155.2636346000363,None,1,,,,,,,,,,,,,,,,,,,,,,,,,,,,,Manya-Chokshi N-back trials,001,2022-10-09_13h49.46.673,N-back_test,2022.2.2,60.098429208233355,
B,space,,,,,,,,,,,,,0,16,16,16,,,,,,,,,,,,,,,,,,,,,,,,,,,,,,,,,,,,,,,,,,,,,,,,,,155.2636346000363,155.7638680000091,155.7638680000091,155.7638680000091,,,space,1,0.6348447999916971,,,,,,,,,,,,,,,,,,,,,,,,,,,,Manya-Chokshi N-back trials,001,2022-10-09_13h49.46.673,N-back_test,2022.2.2,60.098429208233355,
H,None,,,,,,,,,,,,,0,17,17,17,,,,,,,,,,,,,,,,,,,,,,,,,,,,,,,,,,,,,,,,,,,,,,,,,,156.4305090000271,156.93033830000786,156.93033830000786,156.93033830000786,157.68027489999076,157.93007490003947,None,1,,,,,,,,,,,,,,,,,,,,,,,,,,,,,Manya-Chokshi N-back trials,001,2022-10-09_13h49.46.673,N-back_test,2022.2.2,60.098429208233355,
D,None,,,,,,,,,,,,,0,18,18,18,,,,,,,,,,,,,,,,,,,,,,,,,,,,,,,,,,,,,,,,,,,,,,,,,,157.93007490003947,158.43021670001326,158.43021670001326,158.43021670001326,159.18022350000683,159.42980250000255,None,1,,,,,,,,,,,,,,,,,,,,,,,,,,,,,Manya-Chokshi N-back trials,001,2022-10-09_13h49.46.673,N-back_test,2022.2.2,60.098429208233355,
J,None,,,,,,,,,,,,,0,19,19,19,,,,,,,,,,,,,,,,,,,,,,,,,,,,,,,,,,,,,,,,,,,,,,,,,,159.42980250000255,159.92998310003895,159.92998310003895,159.92998310003895,160.6797840000363,160.9298575000139,None,1,,,,,,,,,,,,,,,,,,,,,,,,,,,,,Manya-Chokshi N-back trials,001,2022-10-09_13h49.46.673,N-back_test,2022.2.2,60.098429208233355,
F,None,,,,,,,,,,,,,0,20,20,20,,,,,,,,,,,,,,,,,,,,,,,,,,,,,,,,,,,,,,,,,,,,,,,,,,160.9298575000139,161.43008580000605,161.43008580000605,161.43008580000605,162.17951590003213,162.43033970001852,None,1,,,,,,,,,,,,,,,,,,,,,,,,,,,,,Manya-Chokshi N-back trials,001,2022-10-09_13h49.46.673,N-back_test,2022.2.2,60.098429208233355,
J,space,,,,,,,,,,,,,0,21,21,21,,,,,,,,,,,,,,,,,,,,,,,,,,,,,,,,,,,,,,,,,,,,,,,,,,162.43033970001852,162.9295940999873,162.9295940999873,162.9295940999873,,,space,1,0.37655200000153854,,,,,,,,,,,,,,,,,,,,,,,,,,,,Manya-Chokshi N-back trials,001,2022-10-09_13h49.46.673,N-back_test,2022.2.2,60.098429208233355,
C,None,,,,,,,,,,,,,0,22,22,22,,,,,,,,,,,,,,,,,,,,,,,,,,,,,,,,,,,,,,,,,,,,,,,,,,163.32963039999595,163.8292638999992,163.8292638999992,163.8292638999992,164.57911120000063,164.82941649999702,None,1,,,,,,,,,,,,,,,,,,,,,,,,,,,,,Manya-Chokshi N-back trials,001,2022-10-09_13h49.46.673,N-back_test,2022.2.2,60.098429208233355,
D,None,,,,,,,,,,,,,0,23,23,23,,,,,,,,,,,,,,,,,,,,,,,,,,,,,,,,,,,,,,,,,,,,,,,,,,164.82941649999702,165.32913329999428,165.32913329999428,165.32913329999428,166.07923229999142,166.32903050002642,None,1,,,,,,,,,,,,,,,,,,,,,,,,,,,,,Manya-Chokshi N-back trials,001,2022-10-09_13h49.46.673,N-back_test,2022.2.2,60.098429208233355,
H,None,,,,,,,,,,,,,0,24,24,24,,,,,,,,,,,,,,,,,,,,,,,,,,,,,,,,,,,,,,,,,,,,,,,,,,166.32903050002642,166.82898130000103,166.82898130000103,166.82898130000103,167.5789840000216,167.82981780002592,None,1,,,,,,,,,,,,,,,,,,,,,,,,,,,,,Manya-Chokshi N-back trials,001,2022-10-09_13h49.46.673,N-back_test,2022.2.2,60.098429208233355,
D,space,,,,,,,,,,,,,0,25,25,25,,,,,,,,,,,,,,,,,,,,,,,,,,,,,,,,,,,,,,,,,,,,,,,,,,167.82981780002592,168.32893680001143,168.32893680001143,168.32893680001143,,,space,1,0.343642899999395,,,,,,,,,,,,,,,,,,,,,,,,,,,,Manya-Chokshi N-back trials,001,2022-10-09_13h49.46.673,N-back_test,2022.2.2,60.098429208233355,
A,None,,,,,,,,,,,,,0,26,26,26,,,,,,,,,,,,,,,,,,,,,,,,,,,,,,,,,,,,,,,,,,,,,,,,,,168.7023931000149,169.19573219999438,169.19573219999438,169.21178720000898,169.94561180000892,170.19551679998403,None,1,,,,,,,,,,,,,,,,,,,,,,,,,,,,,Manya-Chokshi N-back trials,001,2022-10-09_13h49.46.673,N-back_test,2022.2.2,60.098429208233355,
B,None,,,,,,,,,,,,,0,27,27,27,,,,,,,,,,,,,,,,,,,,,,,,,,,,,,,,,,,,,,,,,,,,,,,,,,170.19551679998403,170.69506820000242,170.69506820000242,170.69506820000242,171.44505209999625,171.69493569998303,None,1,,,,,,,,,,,,,,,,,,,,,,,,,,,,,Manya-Chokshi N-back trials,001,2022-10-09_13h49.46.673,N-back_test,2022.2.2,60.098429208233355,
E,None,,,,,,,,,,,,,0,28,28,28,,,,,,,,,,,,,,,,,,,,,,,,,,,,,,,,,,,,,,,,,,,,,,,,,,171.69493569998303,172.19526220002444,172.19526220002444,172.19526220002444,172.9449234000058,173.1955001000315,None,1,,,,,,,,,,,,,,,,,,,,,,,,,,,,,Manya-Chokshi N-back trials,001,2022-10-09_13h49.46.673,N-back_test,2022.2.2,60.098429208233355,
I,None,,,,,,,,,,,,,0,29,29,29,,,,,,,,,,,,,,,,,,,,,,,,,,,,,,,,,,,,,,,,,,,,,,,,,,173.1955001000315,173.69511760002933,173.69511760002933,173.69511760002933,174.44451990001835,174.69471930002328,None,1,,,,,,,,,,,,,,,,,,,,,,,,,,,,,Manya-Chokshi N-back trials,001,2022-10-09_13h49.46.673,N-back_test,2022.2.2,60.098429208233355,
F,None,,,,,,,,,,,,,0,30,30,30,,,,,,,,,,,,,,,,,,,,,,,,,,,,,,,,,,,,,,,,,,,,,,,,,,174.69471930002328,175.19463089999044,175.19463089999044,175.19463089999044,175.94458589999704,176.1959653000231,None,1,,,,,,,,,,,,,,,,,,,,,,,,,,,,,Manya-Chokshi N-back trials,001,2022-10-09_13h49.46.673,N-back_test,2022.2.2,60.098429208233355,
I,space,,,,,,,,,,,,,0,31,31,31,,,,,,,,,,,,,,,,,,,,,,,,,,,,,,,,,,,,,,,,,,,,,,,,,,176.1959653000231,176.69451110000955,176.69451110000955,176.71266299998388,,,space,1,0.36159470002166927,,,,,,,,,,,,,,,,,,,,,,,,,,,,Manya-Chokshi N-back trials,001,2022-10-09_13h49.46.673,N-back_test,2022.2.2,60.098429208233355,
B,None,,,,,,,,,,,,,0,32,32,32,,,,,,,,,,,,,,,,,,,,,,,,,,,,,,,,,,,,,,,,,,,,,,,,,,177.07941150001716,177.57797949999804,177.57797949999804,177.59433930000523,178.32753840001533,178.57796810002765,None,1,,,,,,,,,,,,,,,,,,,,,,,,,,,,,Manya-Chokshi N-back trials,001,2022-10-09_13h49.46.673,N-back_test,2022.2.2,60.098429208233355,
I,space,,,,,,,,,,,,,0,33,33,33,,,,,,,,,,,,,,,,,,,,,,,,,,,,,,,,,,,,,,,,,,,,,,,,,,178.57796810002765,179.0775160000194,179.0775160000194,179.0775160000194,179.82717970001977,180.0771662000334,None,0,,,,,,,,,,,,,,,,,,,,,,,,,,,,,Manya-Chokshi N-back trials,001,2022-10-09_13h49.46.673,N-back_test,2022.2.2,60.098429208233355,
H,None,,,,,,,,,,,,,0,34,34,34,,,,,,,,,,,,,,,,,,,,,,,,,,,,,,,,,,,,,,,,,,,,,,,,,,180.0771662000334,180.57743040000787,180.57743040000787,180.57743040000787,181.32746310002403,181.57703530002618,None,1,,,,,,,,,,,,,,,,,,,,,,,,,,,,,Manya-Chokshi N-back trials,001,2022-10-09_13h49.46.673,N-back_test,2022.2.2,60.098429208233355,
B,None,,,,,,,,,,,,,0,35,35,35,,,,,,,,,,,,,,,,,,,,,,,,,,,,,,,,,,,,,,,,,,,,,,,,,,181.57703530002618,182.07697580003878,182.07697580003878,182.07697580003878,,,space,0,0.5155575000098906,,,,,,,,,,,,,,,,,,,,,,,,,,,,Manya-Chokshi N-back trials,001,2022-10-09_13h49.46.673,N-back_test,2022.2.2,60.098429208233355,
C,None,,,,,,,,,,,,,0,36,36,36,,,,,,,,,,,,,,,,,,,,,,,,,,,,,,,,,,,,,,,,,,,,,,,,,,182.61030080000637,183.11033140000654,183.11033140000654,183.11033140000654,183.8599592000246,184.11079529998824,None,1,,,,,,,,,,,,,,,,,,,,,,,,,,,,,Manya-Chokshi N-back trials,001,2022-10-09_13h49.46.673,N-back_test,2022.2.2,60.098429208233355,
B,space,,,,,,,,,,,,,0,37,37,37,,,,,,,,,,,,,,,,,,,,,,,,,,,,,,,,,,,,,,,,,,,,,,,,,,184.11079529998824,184.6101649000193,184.6101649000193,184.6101649000193,185.35998730000574,185.6100029000081,None,0,,,,,,,,,,,,,,,,,,,,,,,,,,,,,Manya-Chokshi N-back trials,001,2022-10-09_13h49.46.673,N-back_test,2022.2.2,60.098429208233355,
F,None,,,,,,,,,,,,,0,38,38,38,,,,,,,,,,,,,,,,,,,,,,,,,,,,,,,,,,,,,,,,,,,,,,,,,,185.6100029000081,186.10999180004,186.10999180004,186.10999180004,186.85982110002078,187.1099649000098,None,1,,,,,,,,,,,,,,,,,,,,,,,,,,,,,Manya-Chokshi N-back trials,001,2022-10-09_13h49.46.673,N-back_test,2022.2.2,60.098429208233355,
J,None,,,,,,,,,,,,,0,39,39,39,,,,,,,,,,,,,,,,,,,,,,,,,,,,,,,,,,,,,,,,,,,,,,,,,,187.1099649000098,187.6097418999998,187.6097418999998,187.6097418999998,188.3595556000364,188.60943980002776,None,1,,,,,,,,,,,,,,,,,,,,,,,,,,,,,Manya-Chokshi N-back trials,001,2022-10-09_13h49.46.673,N-back_test,2022.2.2,60.098429208233355,
F,space,,,,,,,,,,,,,0,40,40,40,,,,,,,,,,,,,,,,,,,,,,,,,,,,,,,,,,,,,,,,,,,,,,,,,,188.60943980002776,189.10942200000864,189.10942200000864,189.10942200000864,,,space,1,0.44474139995872974,,,,,,,,,,,,,,,,,,,,,,,,,,,,Manya-Chokshi N-back trials,001,2022-10-09_13h49.46.673,N-back_test,2022.2.2,60.098429208233355,
B,None,,,,,,,,,,,,,0,41,41,41,,,,,,,,,,,,,,,,,,,,,,,,,,,,,,,,,,,,,,,,,,,,,,,,,,189.5760275000357,190.0758222999866,190.0758222999866,190.0758222999866,190.82600460003596,191.07626410003286,None,1,,,,,,,,,,,,,,,,,,,,,,,,,,,,,Manya-Chokshi N-back trials,001,2022-10-09_13h49.46.673,N-back_test,2022.2.2,60.098429208233355,
B,None,,,,,,,,,,,,,0,42,42,42,,,,,,,,,,,,,,,,,,,,,,,,,,,,,,,,,,,,,,,,,,,,,,,,,,191.07626410003286,191.57624580000993,191.57624580000993,191.57624580000993,192.32582920003915,192.575646399986,None,1,,,,,,,,,,,,,,,,,,,,,,,,,,,,,Manya-Chokshi N-back trials,001,2022-10-09_13h49.46.673,N-back_test,2022.2.2,60.098429208233355,
B,space,,,,,,,,,,,,,0,43,43,43,,,,,,,,,,,,,,,,,,,,,,,,,,,,,,,,,,,,,,,,,,,,,,,,,,192.575646399986,193.07580610003788,193.07580610003788,193.07580610003788,193.82559940003557,194.07550500001526,None,0,,,,,,,,,,,,,,,,,,,,,,,,,,,,,Manya-Chokshi N-back trials,001,2022-10-09_13h49.46.673,N-back_test,2022.2.2,60.098429208233355,
G,None,,,,,,,,,,,,,0,44,44,44,,,,,,,,,,,,,,,,,,,,,,,,,,,,,,,,,,,,,,,,,,,,,,,,,,194.07550500001526,194.57520240003942,194.57520240003942,194.57520240003942,195.3255693000392,195.57519890001277,None,1,,,,,,,,,,,,,,,,,,,,,,,,,,,,,Manya-Chokshi N-back trials,001,2022-10-09_13h49.46.673,N-back_test,2022.2.2,60.098429208233355,
B,space,,,,,,,,,,,,,0,45,45,45,,,,,,,,,,,,,,,,,,,,,,,,,,,,,,,,,,,,,,,,,,,,,,,,,,195.57519890001277,196.075319399999,196.075319399999,196.075319399999,196.8253410999896,197.07503559999168,None,0,,,,,,,,,,,,,,,,,,,,,,,,,,,,,Manya-Chokshi N-back trials,001,2022-10-09_13h49.46.673,N-back_test,2022.2.2,60.098429208233355,
H,None,,,,,,,,,,,,,0,46,46,46,,,,,,,,,,,,,,,,,,,,,,,,,,,,,,,,,,,,,,,,,,,,,,,,,,197.07503559999168,197.57503740000539,197.57503740000539,197.57503740000539,198.32485380000435,198.57471690000966,None,1,,,,,,,,,,,,,,,,,,,,,,,,,,,,,Manya-Chokshi N-back trials,001,2022-10-09_13h49.46.673,N-back_test,2022.2.2,60.098429208233355,
G,None,,,,,,,,,,,,,0,47,47,47,,,,,,,,,,,,,,,,,,,,,,,,,,,,,,,,,,,,,,,,,,,,,,,,,,198.57471690000966,199.075059099996,199.075059099996,199.075059099996,199.82481650001137,200.07506750000175,None,1,,,,,,,,,,,,,,,,,,,,,,,,,,,,,Manya-Chokshi N-back trials,001,2022-10-09_13h49.46.673,N-back_test,2022.2.2,60.098429208233355,
H,space,,,,,,,,,,,,,0,48,48,48,,,,,,,,,,,,,,,,,,,,,,,,,,,,,,,,,,,,,,,,,,,,,,,,,,200.07506750000175,200.57491880003363,200.57491880003363,200.57491880003363,201.32475440000417,201.5746448999853,None,0,,,,,,,,,,,,,,,,,,,,,,,,,,,,,Manya-Chokshi N-back trials,001,2022-10-09_13h49.46.673,N-back_test,2022.2.2,60.098429208233355,
A,None,,,,,,,,,,,,,0,49,49,49,,,,,,,,,,,,,,,,,,,,,,,,,,,,,,,,,,,,,,,,,,,,,,,,,,201.5746448999853,202.0746506000287,202.0746506000287,202.0746506000287,202.82436640001833,203.07543289999012,None,1,,,,,,,,,,,,,,,,,,,,,,,,,,,,,Manya-Chokshi N-back trials,001,2022-10-09_13h49.46.673,N-back_test,2022.2.2,60.098429208233355,
,,,,,,,,,,,,,,,,,,,,,,,,,,,,,,,,,,,,,,,,,,,,,,,,,,,,,,,,,,,,,,,,,,,,,,,,,,,,203.07543289999012,203.07543289999012,space,2.047893100010697,,,,,,,,,,,,,,,,,,,,,,,,Manya-Chokshi N-back trials,001,2022-10-09_13h49.46.673,N-back_test,2022.2.2,60.098429208233355,
E,None,,,,,,,,,,,,,,,,,0,0,0,0,,,,,,,,,,,,,,,,,,,,,,,,,,,,,,,,,,,,,,,,,,,,,,,,,,,,,,,,,,,205.14059329999145,205.6409819999826,205.6409819999826,205.6409819999826,space,0.7021929000038654,,,,,,,,,,,,,,,,,,Manya-Chokshi N-back trials,001,2022-10-09_13h49.46.673,N-back_test,2022.2.2,60.098429208233355,
A,None,,,,,,,,,,,,,,,,,0,1,1,1,,,,,,,,,,,,,,,,,,,,,,,,,,,,,,,,,,,,,,,,,,,,,,,,,,,,,,,,,,,206.3744541000342,206.87394429999404,206.87394429999404,206.87394429999404,None,,207.6239718000288,207.87364489998436,,,,,,,,,,,,,,,,Manya-Chokshi N-back trials,001,2022-10-09_13h49.46.673,N-back_test,2022.2.2,60.098429208233355,
H,None,,,,,,,,,,,,,,,,,0,2,2,2,,,,,,,,,,,,,,,,,,,,,,,,,,,,,,,,,,,,,,,,,,,,,,,,,,,,,,,,,,,207.87364489998436,208.37391080003,208.37391080003,208.37391080003,None,,209.12360869999975,209.37418069998967,,,,,,,,,,,,,,,,Manya-Chokshi N-back trials,001,2022-10-09_13h49.46.673,N-back_test,2022.2.2,60.098429208233355,
B,None,,,,,,,,,,,,,,,,,0,3,3,3,,,,,,,,,,,,,,,,,,,,,,,,,,,,,,,,,,,,,,,,,,,,,,,,,,,,,,,,,,,209.37418069998967,209.87374120001914,209.87374120001914,209.87374120001914,None,,210.62353630003054,210.8733610000345,,,,,,,,,,,,,,,,Manya-Chokshi N-back trials,001,2022-10-09_13h49.46.673,N-back_test,2022.2.2,60.098429208233355,
A,space,,,,,,,,,,,,,,,,,0,4,4,4,,,,,,,,,,,,,,,,,,,,,,,,,,,,,,,,,,,,,,,,,,,,,,,,,,,,,,,,,,,210.8733610000345,211.3732095999876,211.3732095999876,211.3732095999876,space,0.8118751000147313,212.12320440000622,,,,,,,,,,,,,,,,,Manya-Chokshi N-back trials,001,2022-10-09_13h49.46.673,N-back_test,2022.2.2,60.098429208233355,
F,None,,,,,,,,,,,,,,,,,0,5,5,5,,,,,,,,,,,,,,,,,,,,,,,,,,,,,,,,,,,,,,,,,,,,,,,,,,,,,,,,,,,212.21084120002342,212.7232119999826,212.7067379000364,212.7067379000364,None,,213.45638719998533,213.70615819998784,,,,,,,,,,,,,,,,Manya-Chokshi N-back trials,001,2022-10-09_13h49.46.673,N-back_test,2022.2.2,60.098429208233355,
C,None,,,,,,,,,,,,,,,,,0,6,6,6,,,,,,,,,,,,,,,,,,,,,,,,,,,,,,,,,,,,,,,,,,,,,,,,,,,,,,,,,,,213.70615819998784,214.2060891999863,214.2060891999863,214.2060891999863,None,,214.9562508999952,215.206042899983,,,,,,,,,,,,,,,,Manya-Chokshi N-back trials,001,2022-10-09_13h49.46.673,N-back_test,2022.2.2,60.098429208233355,
E,None,,,,,,,,,,,,,,,,,0,7,7,7,,,,,,,,,,,,,,,,,,,,,,,,,,,,,,,,,,,,,,,,,,,,,,,,,,,,,,,,,,,215.206042899983,215.70605730003444,215.70605730003444,215.70605730003444,None,,216.45623469998827,216.7065486999927,,,,,,,,,,,,,,,,Manya-Chokshi N-back trials,001,2022-10-09_13h49.46.673,N-back_test,2022.2.2,60.098429208233355,
D,None,,,,,,,,,,,,,,,,,0,8,8,8,,,,,,,,,,,,,,,,,,,,,,,,,,,,,,,,,,,,,,,,,,,,,,,,,,,,,,,,,,,216.7065486999927,217.20591090002563,217.20591090002563,217.20591090002563,None,,217.95553979999386,218.20575920003466,,,,,,,,,,,,,,,,Manya-Chokshi N-back trials,001,2022-10-09_13h49.46.673,N-back_test,2022.2.2,60.098429208233355,
C,space,,,,,,,,,,,,,,,,,0,9,9,9,,,,,,,,,,,,,,,,,,,,,,,,,,,,,,,,,,,,,,,,,,,,,,,,,,,,,,,,,,,218.20575920003466,218.70609370002057,218.70609370002057,218.70609370002057,space,0.5487800000119023,,,,,,,,,,,,,,,,,,Manya-Chokshi N-back trials,001,2022-10-09_13h49.46.673,N-back_test,2022.2.2,60.098429208233355,
,,,,,,,,,,,,,,,,,,,,,,,,,,,,,,,,,,,,,,,,,,,,,,,,,,,,,,,,,,,,,,,,,,,,,,,,,,,,,,,,,,,,,,,,219.2727741000126,219.2727741000126,space,2.401519000006374,,,,,,,,,,,,Manya-Chokshi N-back trials,001,2022-10-09_13h49.46.673,N-back_test,2022.2.2,60.098429208233355,
A,None,,,,,,,,,,,,,,,,,,,,,0,0,0,0,,,,,,,,,,,,,,,,,,,,,,,,,,,,,,,,,,,,,,,,,,,,,,,,,,,,,,,,,,,,,,,,,,,221.7160113999853,222.20522400003392,222.20522400003392,222.22172139998293,222.9552718999912,223.206122100004,None,1,,,,Manya-Chokshi N-back trials,001,2022-10-09_13h49.46.673,N-back_test,2022.2.2,60.098429208233355,
C,None,,,,,,,,,,,,,,,,,,,,,0,1,1,1,,,,,,,,,,,,,,,,,,,,,,,,,,,,,,,,,,,,,,,,,,,,,,,,,,,,,,,,,,,,,,,,,,,223.206122100004,223.70493070001248,223.70493070001248,223.72201440000208,224.45496310002636,224.70488470001146,None,1,,,,Manya-Chokshi N-back trials,001,2022-10-09_13h49.46.673,N-back_test,2022.2.2,60.098429208233355,
G,None,,,,,,,,,,,,,,,,,,,,,0,2,2,2,,,,,,,,,,,,,,,,,,,,,,,,,,,,,,,,,,,,,,,,,,,,,,,,,,,,,,,,,,,,,,,,,,,224.70488470001146,225.20472360000713,225.20472360000713,225.20472360000713,225.9548128999886,226.20516860001953,None,1,,,,Manya-Chokshi N-back trials,001,2022-10-09_13h49.46.673,N-back_test,2022.2.2,60.098429208233355,
A,space,,,,,,,,,,,,,,,,,,,,,0,3,3,3,,,,,,,,,,,,,,,,,,,,,,,,,,,,,,,,,,,,,,,,,,,,,,,,,,,,,,,,,,,,,,,,,,,226.20516860001953,226.7045418000198,226.7045418000198,226.7045418000198,,,space,1,0.3354527999763377,,,Manya-Chokshi N-back trials,001,2022-10-09_13h49.46.673,N-back_test,2022.2.2,60.098429208233355,
B,None,,,,,,,,,,,,,,,,,,,,,0,4,4,4,,,,,,,,,,,,,,,,,,,,,,,,,,,,,,,,,,,,,,,,,,,,,,,,,,,,,,,,,,,,,,,,,,,227.07104100001743,227.57130539999343,227.57130539999343,227.57130539999343,228.3213274999871,228.57178540003952,None,1,,,,Manya-Chokshi N-back trials,001,2022-10-09_13h49.46.673,N-back_test,2022.2.2,60.098429208233355,
H,None,,,,,,,,,,,,,,,,,,,,,0,5,5,5,,,,,,,,,,,,,,,,,,,,,,,,,,,,,,,,,,,,,,,,,,,,,,,,,,,,,,,,,,,,,,,,,,,228.57178540003952,229.07117080001626,229.07117080001626,229.07117080001626,229.8208403000026,230.07091940002283,None,1,,,,Manya-Chokshi N-back trials,001,2022-10-09_13h49.46.673,N-back_test,2022.2.2,60.098429208233355,
A,None,,,,,,,,,,,,,,,,,,,,,0,6,6,6,,,,,,,,,,,,,,,,,,,,,,,,,,,,,,,,,,,,,,,,,,,,,,,,,,,,,,,,,,,,,,,,,,,230.07091940002283,230.5708051000256,230.5708051000256,230.5708051000256,231.3205058000167,231.57079329999397,None,1,,,,Manya-Chokshi N-back trials,001,2022-10-09_13h49.46.673,N-back_test,2022.2.2,60.098429208233355,
I,None,,,,,,,,,,,,,,,,,,,,,0,7,7,7,,,,,,,,,,,,,,,,,,,,,,,,,,,,,,,,,,,,,,,,,,,,,,,,,,,,,,,,,,,,,,,,,,,231.57079329999397,232.07069429999683,232.07069429999683,232.07069429999683,232.82070670003304,233.070470799983,None,1,,,,Manya-Chokshi N-back trials,001,2022-10-09_13h49.46.673,N-back_test,2022.2.2,60.098429208233355,
H,space,,,,,,,,,,,,,,,,,,,,,0,8,8,8,,,,,,,,,,,,,,,,,,,,,,,,,,,,,,,,,,,,,,,,,,,,,,,,,,,,,,,,,,,,,,,,,,,233.070470799983,233.57021849998273,233.57021849998273,233.57021849998273,234.32075590000022,234.5709380999906,None,0,,,,Manya-Chokshi N-back trials,001,2022-10-09_13h49.46.673,N-back_test,2022.2.2,60.098429208233355,
D,None,,,,,,,,,,,,,,,,,,,,,0,9,9,9,,,,,,,,,,,,,,,,,,,,,,,,,,,,,,,,,,,,,,,,,,,,,,,,,,,,,,,,,,,,,,,,,,,234.5709380999906,235.07041460002074,235.07041460002074,235.07041460002074,235.82004200003576,236.0701793000335,None,1,,,,Manya-Chokshi N-back trials,001,2022-10-09_13h49.46.673,N-back_test,2022.2.2,60.098429208233355,
D,None,,,,,,,,,,,,,,,,,,,,,0,10,10,10,,,,,,,,,,,,,,,,,,,,,,,,,,,,,,,,,,,,,,,,,,,,,,,,,,,,,,,,,,,,,,,,,,,236.0701793000335,236.57009839999955,236.57009839999955,236.57009839999955,237.319908400008,237.56970639998326,None,1,,,,Manya-Chokshi N-back trials,001,2022-10-09_13h49.46.673,N-back_test,2022.2.2,60.098429208233355,
E,None,,,,,,,,,,,,,,,,,,,,,0,11,11,11,,,,,,,,,,,,,,,,,,,,,,,,,,,,,,,,,,,,,,,,,,,,,,,,,,,,,,,,,,,,,,,,,,,237.56970639998326,238.07004830002552,238.07004830002552,238.07004830002552,,,space,0,0.46291140001267195,,,Manya-Chokshi N-back trials,001,2022-10-09_13h49.46.673,N-back_test,2022.2.2,60.098429208233355,
G,None,,,,,,,,,,,,,,,,,,,,,0,12,12,12,,,,,,,,,,,,,,,,,,,,,,,,,,,,,,,,,,,,,,,,,,,,,,,,,,,,,,,,,,,,,,,,,,,238.55807379999897,239.0528277999838,239.0528277999838,239.06963939999696,239.80281490000198,240.05356289999327,None,1,,,,Manya-Chokshi N-back trials,001,2022-10-09_13h49.46.673,N-back_test,2022.2.2,60.098429208233355,
D,space,,,,,,,,,,,,,,,,,,,,,0,13,13,13,,,,,,,,,,,,,,,,,,,,,,,,,,,,,,,,,,,,,,,,,,,,,,,,,,,,,,,,,,,,,,,,,,,240.05356289999327,240.55301959998906,240.55301959998906,240.55301959998906,241.30288630002178,241.5535641000024,None,0,,,,Manya-Chokshi N-back trials,001,2022-10-09_13h49.46.673,N-back_test,2022.2.2,60.098429208233355,
H,None,,,,,,,,,,,,,,,,,,,,,0,14,14,14,,,,,,,,,,,,,,,,,,,,,,,,,,,,,,,,,,,,,,,,,,,,,,,,,,,,,,,,,,,,,,,,,,,241.5535641000024,242.05288820003625,242.05288820003625,242.05288820003625,242.80282630003057,243.05285069998354,None,1,,,,Manya-Chokshi N-back trials,001,2022-10-09_13h49.46.673,N-back_test,2022.2.2,60.098429208233355,
I,None,,,,,,,,,,,,,,,,,,,,,0,15,15,15,,,,,,,,,,,,,,,,,,,,,,,,,,,,,,,,,,,,,,,,,,,,,,,,,,,,,,,,,,,,,,,,,,,243.05285069998354,243.55261140002403,243.55261140002403,243.55261140002403,244.30224250000902,244.55233430000953,None,1,,,,Manya-Chokshi N-back trials,001,2022-10-09_13h49.46.673,N-back_test,2022.2.2,60.098429208233355,
A,None,,,,,,,,,,,,,,,,,,,,,0,16,16,16,,,,,,,,,,,,,,,,,,,,,,,,,,,,,,,,,,,,,,,,,,,,,,,,,,,,,,,,,,,,,,,,,,,244.55233430000953,245.05232309998246,245.05232309998246,245.05232309998246,245.80206160002854,246.0520366000128,None,1,,,,Manya-Chokshi N-back trials,001,2022-10-09_13h49.46.673,N-back_test,2022.2.2,60.098429208233355,
H,space,,,,,,,,,,,,,,,,,,,,,0,17,17,17,,,,,,,,,,,,,,,,,,,,,,,,,,,,,,,,,,,,,,,,,,,,,,,,,,,,,,,,,,,,,,,,,,,246.0520366000128,246.5523935999954,246.5523935999954,246.5523935999954,,,space,1,0.43206139997346327,,,Manya-Chokshi N-back trials,001,2022-10-09_13h49.46.673,N-back_test,2022.2.2,60.098429208233355,
B,None,,,,,,,,,,,,,,,,,,,,,0,18,18,18,,,,,,,,,,,,,,,,,,,,,,,,,,,,,,,,,,,,,,,,,,,,,,,,,,,,,,,,,,,,,,,,,,,247.0021383999847,247.50193979998585,247.50193979998585,247.50193979998585,248.2519984000246,248.50204330001725,None,1,,,,Manya-Chokshi N-back trials,001,2022-10-09_13h49.46.673,N-back_test,2022.2.2,60.098429208233355,
B,None,,,,,,,,,,,,,,,,,,,,,0,19,19,19,,,,,,,,,,,,,,,,,,,,,,,,,,,,,,,,,,,,,,,,,,,,,,,,,,,,,,,,,,,,,,,,,,,248.50204330001725,249.00203249999322,249.00203249999322,249.00203249999322,249.7517456000205,250.0015542000183,None,1,,,,Manya-Chokshi N-back trials,001,2022-10-09_13h49.46.673,N-back_test,2022.2.2,60.098429208233355,
I,None,,,,,,,,,,,,,,,,,,,,,0,20,20,20,,,,,,,,,,,,,,,,,,,,,,,,,,,,,,,,,,,,,,,,,,,,,,,,,,,,,,,,,,,,,,,,,,,250.0015542000183,250.50164720002795,250.50164720002795,250.50164720002795,251.2516411000397,251.5012282000389,None,1,,,,Manya-Chokshi N-back trials,001,2022-10-09_13h49.46.673,N-back_test,2022.2.2,60.098429208233355,
B,space,,,,,,,,,,,,,,,,,,,,,0,21,21,21,,,,,,,,,,,,,,,,,,,,,,,,,,,,,,,,,,,,,,,,,,,,,,,,,,,,,,,,,,,,,,,,,,,251.5012282000389,252.00140730000567,252.00140730000567,252.00140730000567,,,space,1,0.35956839995924383,,,Manya-Chokshi N-back trials,001,2022-10-09_13h49.46.673,N-back_test,2022.2.2,60.098429208233355,
I,None,,,,,,,,,,,,,,,,,,,,,0,22,22,22,,,,,,,,,,,,,,,,,,,,,,,,,,,,,,,,,,,,,,,,,,,,,,,,,,,,,,,,,,,,,,,,,,,252.3845183000085,252.8846142999828,252.8846142999828,252.8846142999828,253.63488660001894,253.88440069998614,None,1,,,,Manya-Chokshi N-back trials,001,2022-10-09_13h49.46.673,N-back_test,2022.2.2,60.098429208233355,
C,None,,,,,,,,,,,,,,,,,,,,,0,23,23,23,,,,,,,,,,,,,,,,,,,,,,,,,,,,,,,,,,,,,,,,,,,,,,,,,,,,,,,,,,,,,,,,,,,253.88440069998614,254.3844465999864,254.3844465999864,254.3844465999864,255.13439299998572,255.3844836000353,None,1,,,,Manya-Chokshi N-back trials,001,2022-10-09_13h49.46.673,N-back_test,2022.2.2,60.098429208233355,
A,None,,,,,,,,,,,,,,,,,,,,,0,24,24,24,,,,,,,,,,,,,,,,,,,,,,,,,,,,,,,,,,,,,,,,,,,,,,,,,,,,,,,,,,,,,,,,,,,255.3844836000353,255.88408670003992,255.88408670003992,255.88408670003992,256.6342794999946,256.8842877999996,None,1,,,,Manya-Chokshi N-back trials,001,2022-10-09_13h49.46.673,N-back_test,2022.2.2,60.098429208233355,
I,space,,,,,,,,,,,,,,,,,,,,,0,25,25,25,,,,,,,,,,,,,,,,,,,,,,,,,,,,,,,,,,,,,,,,,,,,,,,,,,,,,,,,,,,,,,,,,,,256.8842877999996,257.3840220000129,257.3840220000129,257.3840220000129,,,space,1,0.3291484999936074,,,Manya-Chokshi N-back trials,001,2022-10-09_13h49.46.673,N-back_test,2022.2.2,60.098429208233355,
B,None,,,,,,,,,,,,,,,,,,,,,0,26,26,26,,,,,,,,,,,,,,,,,,,,,,,,,,,,,,,,,,,,,,,,,,,,,,,,,,,,,,,,,,,,,,,,,,,257.7337817000225,258.233879300009,258.233879300009,258.233879300009,258.9840723000234,259.2378257000237,None,1,,,,Manya-Chokshi N-back trials,001,2022-10-09_13h49.46.673,N-back_test,2022.2.2,60.098429208233355,
G,None,,,,,,,,,,,,,,,,,,,,,0,27,27,27,,,,,,,,,,,,,,,,,,,,,,,,,,,,,,,,,,,,,,,,,,,,,,,,,,,,,,,,,,,,,,,,,,,259.2378257000237,259.7337879000115,259.7337879000115,259.75201019999804,260.4839747000369,260.7342220999999,None,1,,,,Manya-Chokshi N-back trials,001,2022-10-09_13h49.46.673,N-back_test,2022.2.2,60.098429208233355,
E,None,,,,,,,,,,,,,,,,,,,,,0,28,28,28,,,,,,,,,,,,,,,,,,,,,,,,,,,,,,,,,,,,,,,,,,,,,,,,,,,,,,,,,,,,,,,,,,,260.7342220999999,261.233833300008,261.233833300008,261.233833300008,261.98371770000085,262.23347420000937,None,1,,,,Manya-Chokshi N-back trials,001,2022-10-09_13h49.46.673,N-back_test,2022.2.2,60.098429208233355,
B,space,,,,,,,,,,,,,,,,,,,,,0,29,29,29,,,,,,,,,,,,,,,,,,,,,,,,,,,,,,,,,,,,,,,,,,,,,,,,,,,,,,,,,,,,,,,,,,,262.23347420000937,262.7332031999831,262.7332031999831,262.7332031999831,,,space,1,0.3680836000130512,,,Manya-Chokshi N-back trials,001,2022-10-09_13h49.46.673,N-back_test,2022.2.2,60.098429208233355,
F,None,,,,,,,,,,,,,,,,,,,,,0,30,30,30,,,,,,,,,,,,,,,,,,,,,,,,,,,,,,,,,,,,,,,,,,,,,,,,,,,,,,,,,,,,,,,,,,,263.12044470000546,263.61638710001716,263.61638710001716,263.6331694999826,264.36669160000747,264.6165262000286,None,1,,,,Manya-Chokshi N-back trials,001,2022-10-09_13h49.46.673,N-back_test,2022.2.2,60.098429208233355,
H,None,,,,,,,,,,,,,,,,,,,,,0,31,31,31,,,,,,,,,,,,,,,,,,,,,,,,,,,,,,,,,,,,,,,,,,,,,,,,,,,,,,,,,,,,,,,,,,,264.6165262000286,265.11652300000424,265.11652300000424,265.11652300000424,265.8662462999928,266.11668470001314,None,1,,,,Manya-Chokshi N-back trials,001,2022-10-09_13h49.46.673,N-back_test,2022.2.2,60.098429208233355,
A,None,,,,,,,,,,,,,,,,,,,,,0,32,32,32,,,,,,,,,,,,,,,,,,,,,,,,,,,,,,,,,,,,,,,,,,,,,,,,,,,,,,,,,,,,,,,,,,,266.11668470001314,266.6162559000077,266.6162559000077,266.6162559000077,267.3661327000009,267.61777539999457,None,1,,,,Manya-Chokshi N-back trials,001,2022-10-09_13h49.46.673,N-back_test,2022.2.2,60.098429208233355,
G,None,,,,,,,,,,,,,,,,,,,,,0,33,33,33,,,,,,,,,,,,,,,,,,,,,,,,,,,,,,,,,,,,,,,,,,,,,,,,,,,,,,,,,,,,,,,,,,,267.61777539999457,268.1161026000045,268.1161026000045,268.13273399998434,268.86574450001353,269.1159076000331,None,1,,,,Manya-Chokshi N-back trials,001,2022-10-09_13h49.46.673,N-back_test,2022.2.2,60.098429208233355,
H,space,,,,,,,,,,,,,,,,,,,,,0,34,34,34,,,,,,,,,,,,,,,,,,,,,,,,,,,,,,,,,,,,,,,,,,,,,,,,,,,,,,,,,,,,,,,,,,,269.1159076000331,269.6155616000178,269.6155616000178,269.6155616000178,,,space,1,0.3812368999933824,,,Manya-Chokshi N-back trials,001,2022-10-09_13h49.46.673,N-back_test,2022.2.2,60.098429208233355,
A,None,,,,,,,,,,,,,,,,,,,,,0,35,35,35,,,,,,,,,,,,,,,,,,,,,,,,,,,,,,,,,,,,,,,,,,,,,,,,,,,,,,,,,,,,,,,,,,,270.0173644000315,270.5159149999963,270.5159149999963,270.53247310000006,271.26587460003793,271.51594589999877,None,1,,,,Manya-Chokshi N-back trials,001,2022-10-09_13h49.46.673,N-back_test,2022.2.2,60.098429208233355,
C,None,,,,,,,,,,,,,,,,,,,,,0,36,36,36,,,,,,,,,,,,,,,,,,,,,,,,,,,,,,,,,,,,,,,,,,,,,,,,,,,,,,,,,,,,,,,,,,,271.51594589999877,272.0155143000302,272.0155143000302,272.0155143000302,272.7653263999964,273.0151266999892,None,1,,,,Manya-Chokshi N-back trials,001,2022-10-09_13h49.46.673,N-back_test,2022.2.2,60.098429208233355,
E,None,,,,,,,,,,,,,,,,,,,,,0,37,37,37,,,,,,,,,,,,,,,,,,,,,,,,,,,,,,,,,,,,,,,,,,,,,,,,,,,,,,,,,,,,,,,,,,,273.0151266999892,273.51527740003075,273.51527740003075,273.51527740003075,274.26552920002723,274.5204901000252,None,1,,,,Manya-Chokshi N-back trials,001,2022-10-09_13h49.46.673,N-back_test,2022.2.2,60.098429208233355,
F,None,,,,,,,,,,,,,,,,,,,,,0,38,38,38,,,,,,,,,,,,,,,,,,,,,,,,,,,,,,,,,,,,,,,,,,,,,,,,,,,,,,,,,,,,,,,,,,,274.5204901000252,275.0149924000143,275.0149924000143,275.0318047000328,275.7651909000124,276.0147782000131,None,1,,,,Manya-Chokshi N-back trials,001,2022-10-09_13h49.46.673,N-back_test,2022.2.2,60.098429208233355,
G,None,,,,,,,,,,,,,,,,,,,,,0,39,39,39,,,,,,,,,,,,,,,,,,,,,,,,,,,,,,,,,,,,,,,,,,,,,,,,,,,,,,,,,,,,,,,,,,,276.0147782000131,276.51523710001493,276.51523710001493,276.51523710001493,277.26510770001914,277.516526899999,None,1,,,,Manya-Chokshi N-back trials,001,2022-10-09_13h49.46.673,N-back_test,2022.2.2,60.098429208233355,
E,space,,,,,,,,,,,,,,,,,,,,,0,40,40,40,,,,,,,,,,,,,,,,,,,,,,,,,,,,,,,,,,,,,,,,,,,,,,,,,,,,,,,,,,,,,,,,,,,277.516526899999,278.0146970000351,278.0146970000351,278.0314163999865,278.76469470001757,279.0144994999864,None,0,,,,Manya-Chokshi N-back trials,001,2022-10-09_13h49.46.673,N-back_test,2022.2.2,60.098429208233355,
D,None,,,,,,,,,,,,,,,,,,,,,0,41,41,41,,,,,,,,,,,,,,,,,,,,,,,,,,,,,,,,,,,,,,,,,,,,,,,,,,,,,,,,,,,,,,,,,,,279.0144994999864,279.5147664999822,279.5147664999822,279.5147664999822,280.26459520001663,280.5141676000203,None,1,,,,Manya-Chokshi N-back trials,001,2022-10-09_13h49.46.673,N-back_test,2022.2.2,60.098429208233355,
I,None,,,,,,,,,,,,,,,,,,,,,0,42,42,42,,,,,,,,,,,,,,,,,,,,,,,,,,,,,,,,,,,,,,,,,,,,,,,,,,,,,,,,,,,,,,,,,,,280.5141676000203,281.0143912000349,281.0143912000349,281.0143912000349,281.76412400003755,282.0206824000343,None,1,,,,Manya-Chokshi N-back trials,001,2022-10-09_13h49.46.673,N-back_test,2022.2.2,60.098429208233355,
B,None,,,,,,,,,,,,,,,,,,,,,0,43,43,43,,,,,,,,,,,,,,,,,,,,,,,,,,,,,,,,,,,,,,,,,,,,,,,,,,,,,,,,,,,,,,,,,,,282.0206824000343,282.5139255000395,282.5139255000395,282.53062249999493,283.2640739000053,283.51546289998805,None,1,,,,Manya-Chokshi N-back trials,001,2022-10-09_13h49.46.673,N-back_test,2022.2.2,60.098429208233355,
D,space,,,,,,,,,,,,,,,,,,,,,0,44,44,44,,,,,,,,,,,,,,,,,,,,,,,,,,,,,,,,,,,,,,,,,,,,,,,,,,,,,,,,,,,,,,,,,,,283.51546289998805,284.0140233000275,284.0140233000275,284.030839700019,284.7638805999886,285.0147893000394,None,0,,,,Manya-Chokshi N-back trials,001,2022-10-09_13h49.46.673,N-back_test,2022.2.2,60.098429208233355,
H,None,,,,,,,,,,,,,,,,,,,,,0,45,45,45,,,,,,,,,,,,,,,,,,,,,,,,,,,,,,,,,,,,,,,,,,,,,,,,,,,,,,,,,,,,,,,,,,,285.0147893000394,285.5139446000103,285.5139446000103,285.5306370999897,286.26379100000486,286.5151335999835,None,1,,,,Manya-Chokshi N-back trials,001,2022-10-09_13h49.46.673,N-back_test,2022.2.2,60.098429208233355,
A,None,,,,,,,,,,,,,,,,,,,,,0,46,46,46,,,,,,,,,,,,,,,,,,,,,,,,,,,,,,,,,,,,,,,,,,,,,,,,,,,,,,,,,,,,,,,,,,,286.5151335999835,287.01371780002955,287.01371780002955,287.0305954000214,287.7636299000005,288.0137717000325,None,1,,,,Manya-Chokshi N-back trials,001,2022-10-09_13h49.46.673,N-back_test,2022.2.2,60.098429208233355,
C,None,,,,,,,,,,,,,,,,,,,,,0,47,47,47,,,,,,,,,,,,,,,,,,,,,,,,,,,,,,,,,,,,,,,,,,,,,,,,,,,,,,,,,,,,,,,,,,,288.0137717000325,288.5136285999906,288.5136285999906,288.5136285999906,289.26345289999153,289.51297340000747,None,1,,,,Manya-Chokshi N-back trials,001,2022-10-09_13h49.46.673,N-back_test,2022.2.2,60.098429208233355,
E,None,,,,,,,,,,,,,,,,,,,,,0,48,48,48,,,,,,,,,,,,,,,,,,,,,,,,,,,,,,,,,,,,,,,,,,,,,,,,,,,,,,,,,,,,,,,,,,,289.51297340000747,290.0134366999846,290.0134366999846,290.0134366999846,290.7630895000184,291.0144619999919,None,1,,,,Manya-Chokshi N-back trials,001,2022-10-09_13h49.46.673,N-back_test,2022.2.2,60.098429208233355,
A,space,,,,,,,,,,,,,,,,,,,,,0,49,49,49,,,,,,,,,,,,,,,,,,,,,,,,,,,,,,,,,,,,,,,,,,,,,,,,,,,,,,,,,,,,,,,,,,,291.0144619999919,291.5129934999859,291.5129934999859,291.52949909999734,292.2629443000187,292.51342570001725,None,0,,,,Manya-Chokshi N-back trials,001,2022-10-09_13h49.46.673,N-back_test,2022.2.2,60.098429208233355,
,,,,,,,,,,,,,,,,,,,,,,,,,,,,,,,,,,,,,,,,,,,,,,,,,,,,,,,,,,,,,,,,,,,,,,,,,,,,,,,,,,,,,,,,,,,,,,,,,,,,,292.51342570001725,294.01276080001844,,,,,,,
